Gyro_X,Gyro_Y,Gyro_Z,Accel_X,Accel_Y,Accel_Z,Timestamp
0,0.0092,0,-0.0159,-0.0073,0.9998,0
0.0092,0,0,-0.0168,-0.0067,0.9992,0.0999999999767169
0,-0.0092,0,-0.0159,-0.0058,0.9995,0.200000000011642
-0.0092,0,0,-0.0162,-0.0079,0.9989,0.299999999988358
0,0,0,-0.0165,-0.0061,0.9995,0.399999999965075
0,0,0,-0.0165,-0.0067,0.9992,0.5
-0.0092,0,0,-0.0159,-0.0067,0.9992,0.599999999976717
0,0.0092,-0.0092,-0.0168,-0.0067,0.9998,0.700000000011642
-0.0183,-0.0183,0.0092,-0.0165,-0.0064,0.9986,0.799999999988358
-0.0092,0,0,-0.0146,-0.007,0.9995,0.899999999965075
0,0.0366,0,-0.0174,-0.0079,0.9989,1
0.0092,-0.0549,0,-0.018,-0.0061,1.0001,1.09999999997672
0,-0.0092,0.0092,-0.0137,-0.0043,0.9983,1.20000000001164
-0.0824,-0.0641,0.0275,-0.0177,-0.0076,1.0007,1.29999999998836
0.1465,-0.119,-0.0275,-0.0159,-0.0134,0.9973,1.39999999996508
0.0275,0.0183,0,-0.0143,-0.0027,0.9998,1.5
0.0183,0.0732,-0.0366,-0.0159,-0.007,1.0001,1.59999999997672
0.0092,-0.0824,0.0366,-0.0204,-0.0049,0.998,1.70000000001164
0.0824,-0.0092,-0.0458,-0.0156,-0.0107,0.9992,1.79999999998836
0,-0.0458,-0.0641,-0.011,-0.0089,0.9977,1.89999999996508
0.0366,0.2014,0,-0.0162,-0.0092,0.9973,2
0.0641,-0.0183,-0.0275,-0.0174,0.0012,1.0056,2.09999999997672
-0.0732,0.0732,0,-0.0159,0.0006,0.9931,2.20000000001164
-0.0183,0.0916,-0.0549,-0.0168,0,1.0053,2.29999999998836
-0.0092,0.0275,0.0092,-0.018,-0.0031,0.9992,2.39999999996508
-0.0366,-0.1007,0.0092,-0.0201,-0.0052,0.9983,2.5
0.5585,-0.0092,0.0092,-0.0131,0.0153,1.0001,2.59999999997672
0.5402,-0.0732,0,-0.0195,0.0876,1.0089,2.70000000001164
0.3662,0.0092,0.1373,-0.0159,0.0949,0.9967,2.79999999998836
0.65,-0.2014,0.2106,-0.0189,0.1093,0.9983,2.89999999996508
0.4852,-0.2197,0.2289,-0.0232,0.1248,0.9894,3
0.412,-0.2655,0.4852,-0.0116,0.1343,0.9964,3.09999999997672
0.5127,-0.4852,0.7691,-0.0122,0.1511,0.9952,3.20000000001164
0.174,0.174,0.8515,-0.0101,0.152,1.0019,3.29999999998836
-0.2838,0.2747,0.9247,-0.0174,0.144,0.9903,3.39999999996508
0.3754,0.0366,1.117,-0.0357,0.1468,0.9952,3.5
0.1282,0.0549,1.8494,-0.0189,0.1465,0.9873,3.59999999997672
-0.174,0.293,1.9318,-0.0299,0.137,0.9998,3.70000000001164
0.8789,0.293,2.3164,-0.0201,0.1407,0.9748,3.79999999998836
0.0641,-0.1282,3.0946,-0.0357,0.1389,1.005,3.89999999996508
1.1902,0.119,3.6439,-0.0259,0.1331,0.9796,4
-0.238,1.3459,4.6968,-0.0369,0.1389,0.9998,4.09999999997672
-0.2014,0.824,5.1546,-0.0522,0.1233,1.0092,4.20000000001164
-0.7508,-0.5493,5.7772,-0.054,0.1147,1.0028,4.29999999998836
0.3845,0.3754,6.473,-0.0259,0.1099,0.9839,4.39999999996508
-0.6043,1.2818,6.473,-0.0601,0.0665,0.9857,4.5
0.412,0.3296,6.5554,-0.0726,0.0751,1.0126,4.59999999997672
0,-0.7233,7.1688,-0.0644,0.0833,1.0041,4.70000000001164
-0.7508,0.4486,7.3977,-0.0345,0.0949,0.9818,4.79999999998836
-1.9044,-0.1007,7.178,-0.0461,0.0958,0.9745,4.89999999996508
-0.119,0.9705,7.4252,-0.0464,0.0949,1.0144,5
-0.8972,0.4852,6.18,-0.0528,0.0793,1.0254,5.09999999997672
-0.3662,-0.8515,6.0976,-0.0513,0.0913,0.9784,5.20000000001164
-1.5473,0.9705,5.475,-0.036,0.083,0.9888,5.29999999998836
-2.4995,0.2655,4.6785,-0.0586,0.0699,0.9998,5.39999999996508
0.9888,-1.3092,4.6602,-0.0519,0.0729,0.961,5.5
2.06,-1.3092,4.1017,-0.04,0.0565,1.0248,5.59999999997672
1.9868,-1.1078,3.3143,-0.0272,0.0424,1.0327,5.70000000001164
-1.0712,-1.6114,1.3367,-0.0165,0.0073,0.9735,5.79999999998836
2.6917,0.1923,0.7691,0.0192,0.0101,0.9497,5.89999999996508
1.3001,2.0325,-0.0092,-0.0085,-0.004,1.0364,6
-0.4395,-1.9684,-2.1424,-0.0482,0.0067,1.0446,6.09999999997672
-1.0804,-3.003,-2.5269,-0.0049,0.0192,1.0431,6.20000000001164
-0.5585,-2.6002,-3.5249,0.0342,0.0351,0.936,6.29999999998836
1.3916,0.9888,-3.9186,0.0476,0.0577,0.9763,6.39999999996508
-1.2726,0.2014,-4.7151,0.0027,0.032,1.019,6.5
-1.7396,-0.3662,-4.8891,0.022,0.025,1.0059,6.59999999997672
-0.5493,0.1099,-4.77,0.0171,0.0345,1.0028,6.70000000001164
0.174,0.4578,-4.7334,0.0269,0.047,0.9937,6.79999999998836
-0.3845,-0.2838,-4.6052,0.0131,0.0421,1.0114,6.89999999996508
-0.7965,0.5585,-4.7426,0.0238,0.0229,0.9992,7
0.119,0.5676,-4.8158,0.0195,0.0339,0.9723,7.09999999997672
0.0549,0.293,-4.4954,0.0067,0.0507,0.9928,7.20000000001164
-0.531,-0.2747,-4.0651,0.0073,0.0653,0.9986,7.29999999998836
-0.0641,0.8606,-3.3052,0.0027,0.0662,0.9867,7.39999999996508
0.3845,0.7324,-2.0051,-0.0095,0.0674,0.9842,7.5
0.1007,0.1099,-1.0437,-0.0189,0.0662,1.0138,7.59999999997672
-0.1373,-0.2747,-0.8332,-0.0113,0.0586,1.0044,7.70000000001164
0.4669,0.3571,-0.6317,-0.0037,0.0665,0.9809,7.79999999998836
1.529,0.4028,-0.7233,0,0.0748,0.954,7.89999999996508
-0.8881,-0.1831,-0.9888,-0.0137,0.0659,1.0349,8
0.2472,0,-1.474,0.0043,0.0519,0.9943,8.09999999997672
0.0183,-1.4191,-1.7487,-0.0189,0.0601,0.9702,8.20000000001164
-0.3937,-1.0804,-1.6114,0.014,0.0073,0.9781,8.29999999998836
-1.0437,1.1719,-2.1973,0.0223,-0.0284,0.9891,8.39999999996508
0.3754,0.4212,-2.2065,-0.0034,-0.0125,1.0279,8.5
-0.3479,-0.2106,-1.7304,-0.0021,-0.0119,0.9964,8.59999999997672
0.5036,0.0824,-1.9593,-0.0031,0.0131,0.9748,8.70000000001164
-0.0549,-0.4669,-1.8677,0.0012,0.0455,1.0007,8.79999999998836
-0.4028,0.119,-1.6022,0.0003,0.0235,1.0157,8.89999999996508
-1.5931,1.7579,-1.7304,-0.0031,-0.0003,1.0034,9
0.0732,-0.3296,-2.1241,-0.0171,-0.0009,1.0117,9.09999999997672
0.6043,-0.8332,-1.7762,-0.0027,0.0089,0.9738,9.20000000001164
-0.1007,0.6958,-1.6663,0.0043,0.0113,1.0031,9.29999999998836
1.062,-0.3388,-1.8769,-0.0012,0.018,0.9735,9.39999999996508
1.0712,-0.7508,-1.5931,-0.0027,0.0201,1.0535,9.5
-1.7304,-0.3754,-1.6572,0.0061,0.007,0.9784,9.59999999997672
1.1261,-0.0275,-1.8952,0.0012,0.0073,1.0276,9.70000000001164
0.1007,-0.2197,-1.41,0.0046,0.011,1.0062,9.79999999998836
-0.5585,0.6867,-1.6938,-0.0061,0.0024,1.0211,9.89999999996508
1.1811,-0.7599,-1.8769,-0.0052,0.011,0.9769,10
0.3021,-1.355,-1.5015,0.015,0.0122,0.9964,10.0999999999767
-0.4028,0.8332,-1.4649,0.0134,0.018,0.9766,10.2000000000116
0.9796,0.3296,-1.4374,-0.0046,0.0208,1.0254,10.2999999999884
-0.4395,-0.6592,-1.2085,0.0128,0.0034,0.9931,10.3999999999651
-0.2014,1.236,-0.7782,-0.0012,0.0119,1.0199,10.5
-0.6226,0.6867,-0.4212,-0.018,0.0031,0.9732,10.5999999999767
-0.0092,-0.9247,0.2655,-0.0146,0.0146,1.0062,10.7000000000116
-1.5198,0.5493,0.7233,-0.004,0.0229,0.9977,10.7999999999884
-0.3479,0.586,0.9339,-0.0375,0.0073,1.0129,10.8999999999651
0.2472,-1.1994,1.8403,-0.0107,0.0162,0.9824,11
-0.7324,0.8881,1.5473,-0.0244,0.0061,0.9799,11.0999999999767
0.9522,-1.3459,1.2909,-0.0397,0.0168,0.9705,11.2000000000116
0.0916,-1.7029,1.4008,-0.0079,0.0055,1.0297,11.2999999999884
-1.2635,-0.4669,0.3479,-0.014,-0.007,0.9861,11.3999999999651
0.5585,-1.6846,0,-0.0058,-0.0153,0.997,11.5
-1.0987,-0.7782,-0.3571,0.0177,-0.0232,0.997,11.5999999999767
0.238,0.5585,-0.9796,0.0037,-0.025,1.0245,11.7000000000116
1.1261,-1.1536,-1.0163,-0.0162,-0.0171,0.9757,11.7999999999884
0.7691,-1.1994,-0.7782,0.0369,-0.0101,0.965,11.8999999999651
-0.2472,2.1516,-1.1902,0.0095,-0.018,1.0269,12
0.8332,-0.4486,-1.2635,-0.0131,-0.011,1.0309,12.0999999999767
-0.8148,-0.7782,-1.062,0.0293,-0.0192,0.9742,12.2000000000116
-0.1465,1.0437,-1.6022,0.0095,-0.0162,1.012,12.2999999999884
1.062,0.1282,-1.117,0.0064,-0.0067,1.0028,12.3999999999651
-0.1007,1.3367,-0.9156,0.0217,-0.025,0.968,12.5
-0.1099,-0.1099,-1.3184,-0.0183,-0.0089,1.0114,12.5999999999767
0.4944,-1.822,-0.943,0.0049,-0.0104,1.0059,12.7000000000116
-0.8972,0.8423,-0.7874,0.0391,-0.0238,0.9922,12.7999999999884
-0.238,0.9796,-1.0987,-0.0031,-0.0208,0.9915,12.8999999999651
0.3662,-1.41,-0.9339,-0.0116,-0.0107,0.9851,13
-0.4944,0.5951,-0.9796,0.0284,-0.0174,0.9729,13.0999999999767
-0.174,0.3113,-1.1719,0.0021,-0.0192,0.9732,13.2000000000116
-0.1099,-0.4944,-0.9888,-0.0073,-0.0037,1.0135,13.2999999999884
-1.3092,0.1556,-1.1261,0.0247,-0.0333,0.954,13.3999999999651
1.355,1.236,-1.1353,-0.0067,-0.0092,1.016,13.5
-0.2655,-1.2452,-0.998,-0.0113,-0.0204,1.0022,13.5999999999767
0.238,0.531,-1.0163,0.0302,-0.0348,0.9751,13.7000000000116
0.9247,1.5015,-0.7782,-0.0031,-0.018,1.0376,13.7999999999884
-0.8606,-0.3845,-0.8972,-0.0085,-0.0195,0.9925,13.8999999999651
-0.2197,-0.5585,-0.7141,0.0089,-0.014,0.9626,14
0.1007,0.174,-0.6134,0.0006,-0.0137,1.0315,14.0999999999767
-1.1902,-0.5585,-0.6958,-0.0116,-0.0168,0.9793,14.2000000000116
1.1902,1.5107,-0.0366,0.0223,-0.0024,0.9842,14.2999999999884
0.293,1.5656,0.3204,-0.0433,-0.0159,0.9986,14.3999999999651
0.4578,-2.4354,0.0275,-0.0317,-0.015,1.0236,14.5
-0.4761,-0.4578,0.4212,0.0259,0.0058,0.9949,14.5999999999767
0.0458,3.1037,1.062,0.0073,-0.0052,0.9937,14.7000000000116
0.293,-0.0824,1.0987,-0.0684,-0.0058,1.0123,14.7999999999884
-0.2014,-2.5269,0.8423,-0.0079,-0.0009,1.0001,14.8999999999651
-0.2289,0.8057,1.236,0.0055,-0.0043,0.9732,15
0.3479,0.5219,1.1811,-0.036,0.0076,1.0099,15.0999999999767
0.0641,-0.7782,0.8698,-0.0095,0.0052,0.983,15.2000000000116
-0.3113,0.6134,0.8972,-0.0092,0.0024,0.9812,15.2999999999884
0.6226,-0.2106,0.6867,-0.0284,-0.0024,1.0349,15.3999999999651
-0.4669,-1.0712,0.1556,-0.0015,-0.0174,1.0025,15.5
-0.4303,1.0346,0.238,0.0101,-0.0208,0.9622,15.5999999999767
0.3204,0.6043,0.2197,-0.0311,-0.0171,1.026,15.7000000000116
-0.4852,-0.9522,-0.0641,-0.0165,-0.0137,1.0074,15.7999999999884
-0.6134,0.0641,0.0641,0.0122,-0.0079,0.9879,15.8999999999651
1.0254,0.5127,0.238,-0.0125,-0.0064,1.0071,16
0.2747,0.0366,0.2564,-0.0146,-0.0055,1.0132,16.0999999999767
-0.8332,0.3754,0.238,0.0037,-0.0003,0.994,16.2000000000116
0.4944,0.7141,0.3296,-0.0174,-0.0174,0.9861,16.2999999999884
0.0549,-0.7691,0.2838,-0.0217,-0.0012,1.0144,16.3999999999651
-0.3296,0.293,0.2197,0.004,0.0107,0.9851,16.5
0.4395,0.7965,0.3388,-0.0101,-0.0015,0.9748,16.5999999999767
0.5768,-0.3754,0.3021,-0.029,0.0229,0.9992,16.7000000000116
-0.1556,0.0092,-0.0275,0.0015,0.0192,1.016,16.7999999999884
0.1373,0.3662,0.0275,-0.004,0.0049,0.9732,16.8999999999651
0.2655,-0.0732,0.0732,-0.0256,0.0012,1.0315,17
-0.705,-0.5676,-0.3845,0.0012,0.0113,1.0132,17.0999999999767
-0.6226,0.6775,-0.0732,0,-0.011,0.9668,17.2000000000116
0.119,-0.0183,-0.0458,-0.0262,0.0079,0.9888,17.2999999999884
-0.0732,0.0366,-0.5036,-0.0079,-0.0098,1.0154,17.3999999999651
-0.6867,-0.1648,-0.2564,-0.0049,-0.0125,0.9851,17.5
0.8148,-0.3571,-0.238,-0.0177,-0.011,1.0092,17.5999999999767
-0.2106,0.0824,-0.4486,-0.0079,-0.0247,1.0175,17.7000000000116
0.0824,0.1831,-0.4944,-0.0003,-0.0226,1.0007,17.7999999999884
0.2564,-0.412,-0.3845,-0.0098,-0.0296,0.997,17.8999999999651
0.3204,-0.4028,-0.6043,-0.0085,-0.0162,1.023,18
-0.9705,-0.0366,-0.7233,0.0037,-0.018,0.9824,18.0999999999767
0.7965,0.3571,-0.5585,-0.0076,-0.0104,1.0077,18.2000000000116
0.0183,-0.4852,-0.586,-0.0049,-0.0183,1.008,18.2999999999884
-1.0529,0.2106,-0.5585,0.0034,-0.0119,1.0044,18.3999999999651
-0.238,-0.0183,-0.2197,-0.014,-0.0168,0.9705,18.5
0.3204,-0.5493,-0.2655,-0.0189,-0.0195,1.0218,18.5999999999767
-0.1373,0.2655,-0.2838,0.0006,0.0253,1.0013,18.7000000000116
1.062,0.7599,-0.1373,-0.0031,0.0491,0.9934,18.7999999999884
0.531,-0.1282,-0.0732,-0.0153,0.0302,0.9998,18.8999999999651
-0.0183,-0.3296,-0.2564,-0.0009,0.0238,0.9986,19
-1.7212,-0.3021,0.0824,-0.007,0.0256,0.9818,19.0999999999767
1.2177,0.2014,0.4486,-0.0095,0.029,0.9842,19.2000000000116
0.0732,0.6317,0.293,-0.0256,0.0336,1.0154,19.2999999999884
0.238,0.2106,0.2564,-0.015,0.0296,1.0102,19.3999999999651
0.1923,-0.2472,0.4486,-0.0186,0.0107,0.9629,19.5
1.1994,0.174,0.238,-0.0027,0.0253,1.0547,19.5999999999767
-1.941,0.9156,0.0732,-0.0089,-0.004,0.998,19.7000000000116
0.238,-0.3754,0.2197,-0.0177,-0.0015,0.9964,19.7999999999884
-0.3113,-0.7508,0.1831,-0.0122,0.015,1.0117,19.8999999999651
-1.6846,0.3571,0.293,-0.0058,0.0006,1.0172,20
0.2838,-0.824,0.5036,-0.0198,-0.0092,0.9449,20.0999999999767
0.65,0.238,0.2197,-0.0067,0.0046,1.0367,20.2000000000116
-1.0804,0.2289,0.1007,-0.015,-0.0052,1.0028,20.2999999999884
1.0895,-0.586,0.3845,-0.0192,-0.011,0.9818,20.3999999999651
-0.2289,-1.7579,-0.0732,-0.0113,0.0037,1.0245,20.5
-0.2289,1.0346,-0.0916,0.0131,-0.0211,1.0038,20.5999999999767
0.8972,-0.6958,0.1556,-0.0247,0.0012,0.9986,20.7000000000116
0.4944,-0.5127,-0.2472,-0.0052,-0.0052,1.034,20.7999999999884
-1.1078,0.1099,-0.3937,0.0055,-0.0247,0.9967,20.8999999999651
1.1994,1.1994,-0.119,0.0012,-0.0012,1.0172,21
-0.8881,-0.5768,-0.3754,-0.0253,-0.0079,1.0111,21.0999999999767
0.5951,-0.8972,-0.1007,-0.0055,-0.0003,0.9931,21.2000000000116
-0.2197,-0.9613,-0.0183,-0.0006,-0.0046,1.0004,21.2999999999884
-0.2472,0.8148,-0.0549,0.0085,0.0031,0.9949,21.3999999999651
-1.0712,0.4761,-0.1831,-0.0119,-0.0015,0.9943,21.5
-0.4761,-0.5676,-0.2106,-0.0192,0.0009,1.0111,21.5999999999767
0.5036,-1.2543,-0.3937,0.0009,0.0058,0.9864,21.7000000000116
-0.943,0.7416,-0.0732,0.0085,-0.0043,1.0062,21.7999999999884
-0.1007,0.3662,-0.3479,-0.0119,0.0003,0.9815,21.8999999999651
0.2838,-0.6958,-0.1923,-0.007,0.011,0.9735,22
-0.6958,0.65,-0.0916,0.0055,0.0043,0.9995,22.0999999999767
-0.0458,0.8148,-0.5768,-0.0089,-0.0067,1.0025,22.2000000000116
0.4578,-0.2655,-0.1282,-0.014,0.0015,0.9787,22.2999999999884
-0.5585,0.3388,-0.293,-0.0073,-0.0046,1.0044,22.3999999999651
-0.6775,-0.3204,-0.3113,-0.0043,-0.0137,1.0123,22.5
0.3479,0.7416,-0.2014,0.0024,-0.0098,0.9909,22.5999999999767
-0.7416,0.2289,-0.1648,-0.0159,-0.004,1.0175,22.7000000000116
0.5585,-0.5585,-0.1648,-0.0116,-0.0021,1.0047,22.7999999999884
0.238,-0.1831,-0.3296,-0.0034,0.0021,0.9812,22.8999999999651
-0.238,0.3021,0.0092,0.0076,-0.0055,1.0294,23
0.1007,0.5585,-0.1556,-0.0177,-0.004,1.0086,23.0999999999767
0.5036,-0.8789,-0.1007,-0.015,-0.0018,0.9769,23.2000000000116
-0.1831,-0.0183,0.6317,0.0095,0,1.0019,23.2999999999884
0.0458,0.9796,0.3662,-0.0223,-0.0186,1.0208,23.3999999999651
0.586,-0.65,0.2747,-0.0128,0.0055,1.0062,23.5
-0.0641,0.3021,0.705,0.0003,0.0027,0.9821,23.5999999999767
-0.2289,0.238,0.3754,-0.0253,-0.0189,1.0065,23.7000000000116
1.3276,-0.8698,0.119,-0.0156,-0.0034,1.0132,23.7999999999884
-0.174,0.2014,0.705,0.0128,-0.0098,1.0126,23.8999999999651
-0.3296,0.293,0.4395,-0.0247,-0.0354,0.9891,24
1.4008,-0.943,0.0916,-0.0104,-0.0055,1.0269,24.0999999999767
-0.0916,0.3479,0.4395,0.0134,-0.0204,0.9952,24.2000000000116
0.293,0.5402,0.0732,-0.018,-0.0293,0.9912,24.2999999999884
0.8423,-1.4283,-0.2289,-0.0217,-0.014,1.0361,24.3999999999651
0.0183,-0.4944,0.0824,0.0275,-0.0183,0.9482,24.5
-0.4028,0.9796,0.0275,-0.0009,-0.0229,1.0025,24.5999999999767
0.3113,-0.4303,-0.3571,-0.0195,-0.0143,1.0123,24.7000000000116
0,-1.2452,-0.0092,0.0095,-0.0024,0.9607,24.7999999999884
-0.3754,1.0346,-0.1007,0.0034,-0.0177,1.0044,24.8999999999651
0.1923,0.1282,-0.5585,-0.0168,-0.0156,0.9876,25
0.7599,-1.3092,-0.2747,0.0043,0.0027,0.9836,25.0999999999767
-0.5768,0.1923,-0.1831,0.004,-0.0003,1.0211,25.2000000000116
0.0549,0.5219,-0.6409,0.0052,0.0021,0.9879,25.2999999999884
-0.1556,-0.3937,-0.2106,-0.0012,-0.0061,1.0019,25.3999999999651
-0.0366,0.9888,-0.3296,0.0021,0.007,1.0102,25.5
-0.0275,-0.5493,-0.6317,-0.0177,0.0146,0.9922,25.5999999999767
0.4303,-0.1282,-0.412,0.0143,0.0067,0.9793,25.7000000000116
-0.1648,1.3642,-0.4028,-0.004,0.0012,1.0462,25.7999999999884
-0.1282,0.2747,-0.5402,-0.0119,0.0003,1.0489,25.8999999999651
0.1831,-1.7212,-0.705,-0.0082,-0.0119,0.933,26
1.0346,0.586,-0.4669,0.0293,-0.0092,1.0031,26.0999999999767
-1.5015,1.1261,-1.0254,-0.0146,-0.0281,1.0691,26.2000000000116
-0.3296,-1.8952,-0.8881,-0.018,-0.0201,0.9903,26.2999999999884
1.0071,-0.5768,-0.2106,0.0238,-0.015,0.9613,26.3999999999651
-0.3204,1.1811,-0.7782,0.0052,-0.0183,1.0034,26.5
-0.0824,-0.4852,-0.7874,-0.0076,-0.0012,1.0096,26.5999999999767
-0.1831,0.0092,-0.293,0.0049,-0.0177,0.9693,26.7000000000116
-0.9247,0.4303,-0.2106,-0.007,-0.0009,1.0028,26.7999999999884
-0.0641,-0.9522,0.293,-0.0098,-0.0113,1.0031,26.8999999999651
-0.9705,0.5768,0.8789,0.0055,-0.018,0.994,27
0.6958,1.3733,0.7416,-0.0125,-0.0186,1.03,27.0999999999767
-0.5402,-0.4303,0.6867,-0.0287,-0.0128,0.9281,27.2000000000116
1.8677,-0.0549,0.8057,-0.0046,-0.0046,1.0208,27.2999999999884
-0.5951,0.8423,0.6867,0,-0.0201,1.0236,27.3999999999651
0.2747,-0.0458,0.6317,-0.0262,-0.0259,1.0263,27.5
-0.293,-1.4557,0.8789,-0.0003,-0.0232,0.965,27.5999999999767
1.1444,2.06,0.7324,0.0174,-0.0229,1.0147,27.7000000000116
-0.1465,1.2635,0.6867,-0.0403,-0.0342,1.0108,27.7999999999884
0.2655,-1.5839,0.3296,-0.0189,-0.0095,0.9641,27.8999999999651
1.2726,0.4028,0.5402,0.0156,-0.0049,0.9662,28
0.65,1.7762,0.5219,-0.0104,-0.0223,1.0657,28.0999999999767
1.6938,-0.7324,0.6867,-0.0418,-0.0162,1.019,28.2000000000116
-0.3479,-0.8881,1.2726,0.0079,-0.0232,0.9796,28.2999999999884
-0.0549,1.6755,0.7416,-0.0006,-0.0116,0.9915,28.3999999999651
0.4852,1.2177,0.5676,-0.0391,-0.014,1.0022,28.5
-3.3967,-1.2177,0.1373,-0.0275,-0.0229,1.048,28.5999999999767
-0.1556,-0.4486,-0.0732,0.0015,-0.0339,0.9314,28.7000000000116
-1.41,-1.7487,0.1282,-0.0092,-0.0073,1.0062,28.7999999999884
-1.1078,-0.4395,-0.3388,0.0076,-0.0128,0.9793,28.8999999999651
-1.3733,1.6572,-0.2197,0.0104,-0.032,0.9903,29
1.1719,0.7965,-0.0366,-0.0186,-0.0082,1.0102,29.0999999999767
1.0437,-0.705,-0.1373,-0.0415,-0.0204,0.998,29.2000000000116
0.7691,-0.9247,-0.2106,0.0089,-0.0079,1.0016,29.2999999999884
0.4761,1.5564,0.3845,0.0006,-0.0174,0.9906,29.3999999999651
-0.7233,0.1465,0.5676,-0.0406,-0.0092,1.0382,29.5
-0.6317,-1.6938,0.5585,-0.0085,-0.0156,0.9751,29.5999999999767
-0.2747,0.6958,0.586,0.0031,-0.0168,1.0092,29.7000000000116
0.7874,0.6867,0.6226,-0.0165,-0.0125,0.9815,29.7999999999884
0.7874,-0.7508,0.0458,-0.0281,-0.0024,1.0456,29.8999999999651
0.65,0.6867,0.174,0.0174,0.0003,0.9952,30
0.6043,1.1261,-0.3204,-0.0156,-0.0073,1.001,30.0999999999767
-0.412,-0.8698,-0.4761,-0.0183,0.004,1.0031,30.2000000000116
0.0092,-0.6775,-0.8148,0.022,0.0082,0.9919,30.2999999999884
-0.5768,2.6002,-0.531,0.0076,0.0122,1.0175,30.3999999999651
1.8036,1.3001,-0.586,-0.033,0.0021,0.9665,30.5
0,-2.9572,-1.1811,-0.0351,0.0168,1.0489,30.5999999999767
0.0183,0.6134,-0.9064,0.0406,-0.0153,0.951,30.7000000000116
0.531,2.0142,-0.7599,-0.0024,0.0095,1.0382,30.7999999999884
-0.9613,-0.5127,-0.7141,-0.0433,0.0034,1.0062,30.8999999999651
-1.0346,-1.3184,-0.8423,-0.0101,0.0134,1.0016,31
0.1648,-0.4028,-0.5402,0.0018,0.0107,0.94,31.0999999999767
0.6317,0.5585,0.1831,-0.015,0.0067,1.0541,31.2000000000116
-2.5178,-1.8677,-0.6226,-0.0171,-0.0128,1.0108,31.2999999999884
0,-0.7599,-0.4028,0.0192,-0.0024,0.9836,31.3999999999651
-0.0366,0.5127,-0.0183,-0.007,-0.0101,1.0007,31.5
-0.2106,-0.9247,-0.1282,-0.0122,-0.0238,0.9995,31.5999999999767
0.1923,-0.2106,0.0549,0.0089,-0.0189,0.9928,31.7000000000116
1.5015,-0.0275,0.1373,-0.0107,-0.0107,0.9754,31.7999999999884
0.8423,0.0641,0.2289,-0.0134,-0.004,1.0279,31.8999999999651
0.1648,-0.7599,0.1373,0.0031,-0.0223,1.0114,32
-0.2747,0.2747,0.1282,0.0027,-0.0104,1.005,32.0999999999767
0.7508,-0.3662,0.4669,-0.0241,0.0217,0.9876,32.2000000000116
-0.8606,-1.4191,0.4028,-0.0058,0.0323,1.037,32.2999999999884
-0.2564,0.4944,0.4578,0.0046,0.0201,0.9854,32.3999999999651
0.412,-0.0732,0.2564,-0.018,0.0095,0.9766,32.5
0.2838,-0.6958,0.4669,-0.0122,0.0165,1.0059,32.5999999999767
0.5951,0.0916,0.0641,0.0162,0.0259,1.019,32.7000000000116
-0.3754,0.2106,0.2289,-0.0107,0.0226,0.9897,32.7999999999884
0.238,-0.5402,0.412,-0.0119,0.0076,1.0004,32.8999999999651
-0.9522,-0.2472,0.3113,0,0.0095,1.0047,33
-1.3459,0.4578,0.1007,0.0171,0.0064,0.9799,33.0999999999767
-0.0458,0.0275,0.4486,-0.0119,0.0168,0.9696,33.2000000000116
-0.238,-0.7874,0.3296,-0.0067,0.0217,1.0062,33.2999999999884
-1.7487,0.1648,0.2655,0.0043,0.0049,0.9983,33.3999999999651
-0.1556,-0.1465,0.3388,-0.0113,-0.0058,0.9772,33.5
-0.8972,-0.4944,0.3204,-0.0006,-0.0092,1.0147,33.5999999999767
-1.8952,0.6775,-0.0183,0.0079,0.0049,1.0211,33.7000000000116
-1.236,0.4761,0.0824,-0.0092,-0.0131,0.9507,33.7999999999884
1.5564,-0.6409,0.1831,-0.0098,0.0061,1.0163,33.8999999999651
-0.412,-0.2838,0.0183,0.0122,-0.0061,1.0157,34
0.4486,0.5493,0.2747,0.0061,-0.0159,0.9781,34.0999999999767
1.6114,-1.5015,0.5585,0.0009,-0.007,0.8933,34.2000000000116
0.6867,0.4395,0.4028,-0.0043,0.0204,1.1319,34.2999999999884
-2.179,0.5676,0,0,-0.0189,0.9592,34.3999999999651
2.0783,-0.7691,0.3296,-0.0134,0.0079,0.9912,34.5
0.412,-0.3845,0.1831,-0.0058,-0.0009,1.0224,34.5999999999767
-0.8881,0.2838,-0.0824,0.0143,-0.0067,1.0016,34.7000000000116
1.3733,-0.4486,0.3296,-0.0055,0.0015,0.9821,34.7999999999884
1.5656,0.4669,0.2289,0,0.0174,1.03,34.8999999999651
0.0549,1.236,0.2564,0.007,0.0171,1.0007,35
0.4212,0.1923,0.3937,-0.0192,0.0278,0.9803,35.0999999999767
1.5015,0.0092,0.531,-0.004,0.0241,1.0303,35.2000000000116
-1.9501,0.9888,0.3662,0.0073,0.011,1.0242,35.2999999999884
0.8972,0.7508,0.2655,-0.022,0.0107,0.9903,35.3999999999651
1.2268,-0.4669,0.4944,-0.0064,0.018,0.976,35.5
-0.412,0.5585,0.1648,-0.0027,0.0168,1.0361,35.5999999999767
-0.1556,0.3571,0.3113,-0.0092,0.0098,0.9815,35.7000000000116
0.2564,0.2014,0.3937,-0.0061,0.0085,1.0007,35.7999999999884
-1.0254,0.5951,0.3113,-0.0104,0.0095,1.0047,35.8999999999651
-1.1719,0.0916,0.3571,-0.0092,0,0.9827,36
0.293,0.1007,0.3479,-0.0092,0.0037,0.9964,36.0999999999767
-1.5198,0.8606,0.2838,-0.0098,0.0052,1.0184,36.2000000000116
-0.6409,-0.3479,0.1099,-0.0195,0.0034,0.9842,36.2999999999884
1.4008,-0.4944,0.3662,-0.0018,0.0095,0.9586,36.3999999999651
-0.6958,1.1353,0.2014,-0.0021,0.0134,1.0337,36.5
-0.0549,0.6684,0.0641,-0.0195,-0.0186,0.9806,36.5999999999767
1.3001,-0.7782,0.2747,-0.0107,-0.0027,0.9909,36.7000000000116
-0.9522,1.529,0.1648,0.0024,-0.0079,1.008,36.7999999999884
0.1556,0.7599,0.0824,-0.0247,-0.0153,0.9931,36.8999999999651
0.5402,-0.2014,0.4669,-0.0262,-0.0192,0.9915,37
0.2106,0.9613,0.5951,-0.0058,-0.0085,1.0681,37.0999999999767
0.2472,1.1994,0.9156,-0.0226,-0.0189,0.9931,37.2000000000116
1.0529,0.4212,1.1353,-0.0381,-0.0101,0.998,37.2999999999884
0.5676,1.2818,1.4649,-0.0165,-0.0021,0.9973,37.3999999999651
-0.7508,0.5036,1.5015,-0.0436,0.0046,1.0251,37.5
0.586,-0.2472,1.6388,-0.0388,-0.0125,1.0007,37.5999999999767
1.4008,0.6592,2.1424,-0.0204,0.014,1.0202,37.7000000000116
0.0092,0.4852,1.7945,-0.0519,-0.0107,0.9622,37.7999999999884
0.8972,-1.6022,1.7945,-0.043,0.0104,1.005,37.8999999999651
-0.174,-0.0275,1.9318,-0.0079,0.011,1.0324,38
-2.1882,0.4578,1.8769,-0.032,-0.0034,0.9888,38.0999999999767
0.174,-0.3845,2.0783,-0.0446,0.0058,0.9726,38.2000000000116
0.293,0.2014,1.9501,-0.0214,0.0067,0.9876,38.2999999999884
-1.0254,0.1465,1.7579,-0.0409,0.0037,1.0373,38.3999999999651
-0.8423,-1.2726,1.9593,-0.0421,0.0034,0.9705,38.5
-0.0549,-0.5768,1.6846,-0.0095,0.014,0.9754,38.5999999999767
-2.0508,1.3276,1.529,-0.0272,0.0073,1.0181,38.7000000000116
-1.1811,-0.1007,1.2177,-0.0406,-0.0067,0.9851,38.7999999999884
-0.4669,-1.648,1.0437,-0.0256,0.0067,0.9824,38.8999999999651
0.5036,0.0641,1.41,-0.0092,0.0104,0.9622,39
0.3204,-0.1831,1.4283,-0.0305,-0.0006,0.9946,39.0999999999767
1.1994,0.3021,1.2909,-0.0092,-0.0113,0.9796,39.2000000000116
0.4669,0.2655,1.4466,-0.0366,-0.0037,1.0056,39.2999999999884
0.8057,-0.6134,1.3367,-0.0348,-0.022,1.0022,39.3999999999651
0.9888,-1.41,1.5564,-0.015,-0.0058,1.0022,39.5
-0.6226,0.3937,1.8677,-0.0253,-0.0177,1.0181,39.5999999999767
-0.824,-0.4944,1.9318,-0.032,-0.0153,1.005,39.7000000000116
-0.3021,-0.174,2.0966,-0.0198,-0.0082,0.9897,39.7999999999884
-0.9522,-0.0641,2.1699,-0.0372,-0.0119,1.0263,39.8999999999651
-0.2014,-1.5564,2.0051,-0.0378,-0.0107,0.9577,40
-0.9522,-0.9705,1.7762,-0.0122,-0.0009,0.9632,40.0999999999767
-1.1078,-0.0916,2.179,-0.0073,0.0018,0.987,40.2000000000116
-2.2614,-0.3662,2.179,-0.0388,-0.0171,1.0346,40.2999999999884
0.6867,-1.886,2.2797,-0.043,-0.0046,0.9995,40.3999999999651
2.765,1.2543,3.058,-0.0165,-0.0116,0.9827,40.5
0.0092,-1.6846,1.7121,-0.0412,-0.0162,1.1087,40.5999999999767
1.9135,-1.3459,-0.2197,-0.0113,-0.0372,0.9198,40.7000000000116
1.0529,-2.472,-2.6734,0.0449,-0.0089,1.0593,40.7999999999884
-0.9522,-1.6572,-4.8982,0.0501,-0.0528,1.0077,40.8999999999651
1.0163,-1.3916,-5.8687,0.0555,-0.0302,1.0163,41
1.3825,-1.3184,-7.2237,0.0726,-0.0195,0.9857,41.0999999999767
-0.4212,-1.9318,-8.5604,0.0906,-0.0278,0.9897,41.2000000000116
0.5219,1.5381,-9.2929,0.1071,-0.0131,1.0092,41.2999999999884
0.2289,1.1628,-9.3661,0.0742,-0.0156,1.0132,41.3999999999651
1.0529,0.2472,-9.1372,0.0696,-0.0092,1.0187,41.5
0.238,-0.943,-9.6774,0.0906,-0.0037,0.9684,41.5999999999767
-1.0163,0.8057,-9.3387,0.1041,0.007,1.0102,41.7000000000116
-0.531,1.4374,-9.2563,0.069,-0.0095,1.0346,41.7999999999884
0.0824,-0.7416,-9.6408,0.0604,0.0159,0.9864,41.8999999999651
0.8423,0.0824,-8.3407,0.0974,0.029,0.9635,42
0.238,2.8748,-7.4984,0.0699,0.0116,1.001,42.0999999999767
0.3754,0.6317,-6.6927,0.0259,0.0177,1.0404,42.2000000000116
-0.5036,0.3296,-4.9623,0.0531,0.0226,0.9903,42.2999999999884
0.3388,1.6846,-3.5157,0.036,0.0165,0.9565,42.3999999999651
-0.4212,1.6572,-2.3164,0.0031,0.0406,1.0511,42.5
-1.8128,0.0183,-0.8606,0.0024,0.0241,0.987,42.5999999999767
-0.7782,0.9888,0.65,-0.0015,0.0085,0.9659,42.7000000000116
-0.3662,1.1994,1.5748,-0.029,0.0156,0.9977,42.7999999999884
-0.3388,0.2289,1.5656,-0.0241,-0.0015,0.9726,42.8999999999651
0.3204,-0.174,1.7487,-0.0262,-0.0061,0.969,43
0.9064,-0.7874,1.4832,-0.0259,0.0095,1.0269,43.0999999999767
-0.5768,-1.3642,1.5656,-0.0079,0.0122,0.9879,43.2000000000116
0.6317,0.8332,1.9318,-0.015,0.007,0.9754,43.2999999999884
0.7233,-0.5402,1.1444,-0.0327,0.0006,0.9919,43.3999999999651
-0.7782,-0.9247,1.0437,-0.0125,0.0146,0.9973,43.5
0.7141,0.5036,1.4466,-0.0085,0.0076,0.9342,43.5999999999767
0.3479,0.4578,1.6572,-0.0256,0.0073,1.0395,43.7000000000116
-1.41,-0.6592,1.9227,-0.0156,-0.0012,1.0074,43.7999999999884
0.6317,0.9156,2.1058,-0.0153,0.0037,0.9684,43.8999999999651
0.2197,0.4395,2.06,-0.0314,0.0198,1.0169,44
-0.3021,-0.2472,2.1516,-0.033,0.0116,0.9845,44.0999999999767
1.1261,0.3388,2.1424,-0.018,0.0168,0.9806,44.2000000000116
0.174,-0.0092,2.0417,-0.0391,0.014,1.0205,44.2999999999884
0.2289,-0.65,2.0142,-0.0211,0.0153,0.9778,44.3999999999651
1.0163,0.412,1.8677,-0.0186,0.0046,1.0028,44.5
-0.1282,-0.1923,1.7212,-0.0388,0.0095,1.0001,44.5999999999767
-0.2014,-0.2197,1.7762,-0.0174,0.0003,0.983,44.7000000000116
1.1902,0.3479,1.6297,-0.0122,0.0143,1.0028,44.7999999999884
-0.2197,-0.0732,1.3459,-0.033,0.0082,1.0172,44.8999999999651
-0.8148,-0.705,1.0529,-0.0186,-0.0024,0.99,45
0.4578,0.6684,0.9064,-0.0037,0.0015,0.9839,45.0999999999767
-0.9705,0.2014,0.5585,-0.0153,-0.0192,1.0132,45.2000000000116
-1.2543,0.4028,0.2838,-0.0073,-0.0153,1.016,45.2999999999884
1.0712,0.1282,0.293,-0.0131,-0.0092,0.983,45.3999999999651
-0.0916,-0.3113,0.2197,-0.0159,-0.0107,0.9986,45.5
-0.4028,0.1831,0.3296,0.0018,-0.0113,1.0135,45.5999999999767
0.6592,1.0529,0.531,-0.0101,-0.0137,1.0019,45.7000000000116
-0.6043,-0.3662,0.5951,-0.0238,-0.0073,1.0144,45.7999999999884
0.0732,0.412,0.531,-0.014,-0.0101,0.983,45.8999999999651
1.6022,0.8881,0.6958,-0.0146,-0.0024,1.0013,46
-0.5768,-0.3937,0.8789,-0.0217,-0.0089,1.008,46.0999999999767
0.1648,0.1648,0.8698,-0.015,-0.0027,0.9891,46.2000000000116
0.6134,0.9705,1.0346,-0.025,-0.007,1.012,46.2999999999884
-0.9064,-0.1556,0.8606,-0.0204,-0.0089,1.0138,46.3999999999651
0.174,0.4944,0.8148,-0.0208,-0.0012,0.99,46.5
0.943,0.6317,0.943,-0.0232,-0.0012,1.0135,46.5999999999767
-0.0366,0.3296,0.824,-0.0168,-0.0067,1.0169,46.7000000000116
1.0437,0.7416,0.7508,-0.0156,-0.0009,0.9973,46.7999999999884
1.4557,0.3479,0.8423,-0.0302,0.004,1.0105,46.8999999999651
-0.7965,-0.412,0.3388,-0.0195,-0.0061,0.9952,47
0.5036,0.5402,0.0092,-0.0104,0.0064,1.0086,47.0999999999767
-0.2747,0.3754,0.3113,-0.0208,-0.0067,0.994,47.2000000000116
-1.0163,0.0824,0.238,-0.0217,0.0006,0.9891,47.2999999999884
-0.2289,-0.1465,0.3479,-0.0183,0.0204,0.9992,47.3999999999651
-0.9705,0.1099,0.5127,-0.0259,-0.0031,1.0163,47.5
-1.2452,-0.2472,0.119,-0.0186,0.007,1.0187,47.5999999999767
-0.5768,-0.2014,0.0275,-0.0125,-0.0113,0.9742,47.7000000000116
0.0366,-0.3021,0.0366,-0.0208,-0.0131,0.951,47.7999999999884
-0.3113,0.1007,-0.2747,-0.018,-0.0153,1.0596,47.8999999999651
0.1831,-0.293,-0.3845,-0.0076,-0.0089,0.9818,48
0.6775,-0.9888,0.2655,-0.0107,0.0055,1.0126,48.0999999999767
-0.2014,1.0712,-0.0458,-0.011,-0.0082,1.0099,48.2000000000116
0.6317,-0.4486,-0.0732,-0.0259,0.007,0.9815,48.2999999999884
-0.5402,-1.0987,0.2289,-0.0153,-0.0174,1.0462,48.3999999999651
0.4578,0.6867,-0.2014,0.0015,-0.0119,0.9766,48.5
1.4191,-0.0549,0.2289,-0.0214,-0.0061,0.9729,48.5999999999767
-0.9064,-0.119,-0.119,-0.0247,-0.015,1.0154,48.7000000000116
-1.062,-1.1536,-0.5219,-0.004,-0.0101,1.0211,48.7999999999884
-1.1719,-0.0824,0.0641,-0.0113,-0.0015,0.9894,48.8999999999651
-0.1648,0.3479,0.1373,0.0021,-0.0095,0.9668,49
0.4395,1.0437,0,-0.0174,-0.0076,1.0309,49.0999999999767
0.5127,-0.7324,-0.1007,-0.0299,-0.007,0.9931,49.2000000000116
-0.0275,-0.7416,-0.0275,0.0043,-0.0061,1.001,49.2999999999884
1.2635,1.236,-0.0732,-0.0076,-0.0012,1.0157,49.3999999999651
0.0458,-0.3479,0.174,-0.0204,0.0006,0.9705,49.5
0.7508,0.4303,-0.0275,-0.0076,0.0104,1.0178,49.5999999999767
0.119,0.4761,0.0092,-0.0201,0.0137,0.994,49.7000000000116
-0.3662,-0.0183,0.2655,-0.0235,-0.0055,0.9729,49.7999999999884
-0.8972,-0.2106,-0.1282,-0.0192,0.0021,1.0016,49.8999999999651
-0.6317,0.293,-0.0275,-0.0101,0,0.9931,50
0.4395,0.0732,0.2014,-0.0134,-0.0034,0.9958,50.0999999999767
0.2106,0.3388,0.0824,-0.0119,-0.0116,0.9861,50.2000000000116
0.8515,-0.238,0.1007,-0.0174,0,0.9983,50.2999999999884
0.5402,-0.9705,0.2106,-0.0128,-0.0055,0.9729,50.3999999999651
-0.3388,0.7599,0.1007,-0.0116,-0.0031,1.0291,50.5
0.0183,-0.2564,-0.0732,-0.0192,0.0006,0.976,50.5999999999767
-0.2747,-0.6134,0.2289,-0.0137,-0.0085,0.972,50.7000000000116
-0.7691,0.0275,-0.1556,-0.0204,0.0024,1.0187,50.7999999999884
-0.586,-0.3479,0.0458,-0.011,0.0012,0.9772,50.8999999999651
-0.6226,-0.3662,0.1831,-0.0049,-0.0024,0.9696,51
-1.4283,0.7416,-0.0641,-0.0143,-0.0015,1.0257,51.0999999999767
-0.7141,-0.1831,-0.0092,-0.0192,-0.0055,0.9891,51.2000000000116
-0.4669,-0.2289,0.0641,-0.0073,-0.0146,0.9613,51.2999999999884
0.5036,1.2085,-0.0458,-0.0156,-0.007,1.0242,51.3999999999651
0.1099,-0.3204,-0.1556,-0.0311,-0.0165,0.9995,51.5
0.8698,-0.4303,0.0458,-0.0055,-0.0101,0.9742,51.5999999999767
-0.0275,1.1444,-0.0183,-0.0177,-0.0064,1.0044,51.7000000000116
0.2655,0.2014,0.0641,-0.0217,-0.0027,0.9952,51.7999999999884
0.0549,0.412,0.1373,-0.0119,-0.0171,0.9882,51.8999999999651
-0.2564,0.4395,0.0183,-0.0262,-0.0061,1.0169,52
0.586,-0.2197,0.0275,-0.0262,-0.0095,0.979,52.0999999999767
0.6775,0.3845,0.0916,-0.0101,-0.0092,0.9885,52.2000000000116
0.4944,0.4395,-0.0275,-0.0278,0,1.0077,52.2999999999884
-0.7965,-0.7874,0.1099,-0.0256,-0.011,0.9763,52.3999999999651
0.7416,0.3937,0.0732,-0.0107,0.0027,1.0022,52.5
-1.2452,0.7691,0.2106,-0.022,-0.0043,1.0092,52.5999999999767
-0.1648,-0.4944,0.1556,-0.0345,0.0079,0.9687,52.7000000000116
0.8148,-0.1923,0.1923,-0.014,0.0092,0.9653,52.7999999999884
0.0916,0.4578,0.1373,-0.0259,0.0189,1.0257,52.8999999999651
0.4028,-0.9339,0.2289,-0.0314,0.0204,0.9781,53
0.2564,-0.3113,0.4212,-0.0098,0.0113,0.9992,53.0999999999767
-0.1923,-0.1923,0.1465,-0.029,0.0229,1.0068,53.2000000000116
0.2014,-0.5676,0.4303,-0.0253,0.0018,0.9967,53.2999999999884
0,0,0.2564,-0.0165,0.0064,0.9827,53.3999999999651
-0.2747,-0.7324,0.1465,-0.0272,-0.0043,1.0315,53.5
-0.0092,0.0366,0.4028,-0.0211,-0.0046,0.9674,53.5999999999767
0.3204,0.5127,0.2014,-0.0168,0.0073,1.0257,53.7000000000116
0.7782,-0.2564,0.2472,-0.0333,0.0046,0.9912,53.7999999999884
0.5402,-0.6867,0.1465,-0.0232,0.0107,1.026,53.8999999999651
-0.1648,0.3388,0.1831,0.0058,-0.0049,0.9848,54
-0.2106,-0.4303,0.3296,-0.0333,0.015,1.0041,54.0999999999767
0.2014,-0.8789,0.0458,-0.0302,-0.0052,1.0218,54.2000000000116
0.2106,0.7782,0.2289,0.0067,-0.0043,0.9687,54.2999999999884
-0.6592,0,0.3204,-0.0317,-0.0049,1.0169,54.3999999999651
0.8972,-0.4669,0.0275,-0.0168,0.0015,0.9998,54.5
0.5951,0.8698,0.119,-0.0101,0.0122,1.0215,54.5999999999767
-0.7782,0.0458,0.2472,-0.0314,-0.0098,0.9958,54.7000000000116
0.3571,-0.7782,-0.0092,-0.011,0.0217,1.0041,54.7999999999884
-0.824,0.5951,0.1556,-0.0055,0.0095,1.0083,54.8999999999651
-1.117,-0.0549,0.119,-0.0314,-0.011,0.9781,55
-0.0092,-0.6775,0.0366,-0.0143,0.0134,0.9925,55.0999999999767
0.2655,0.2197,0.2197,-0.015,0,0.9891,55.2000000000116
0.293,-0.5493,0.1007,-0.0345,-0.0055,0.998,55.2999999999884
-0.0916,-0.2014,0.0092,-0.0064,0.0046,0.9912,55.3999999999651
0.1282,-0.0366,0.2106,-0.0244,-0.0012,1.0129,55.5
0.238,-0.5036,-0.1831,-0.0253,-0.0079,1.0215,55.5999999999767
-0.3845,-0.5676,-0.3021,0,-0.0095,0.9922,55.7000000000116
0.6867,-0.8972,-0.1923,-0.0153,-0.0073,1.0083,55.7999999999884
-0.2564,-0.531,-0.7508,0.0061,-0.0052,0.9787,55.8999999999651
-0.705,0.8332,-0.6134,0.0067,-0.0046,1.0022,56
-0.4852,-0.8606,-0.5402,-0.0293,-0.0156,1.0184,56.0999999999767
-1.1444,-1.6114,-1.0804,-0.0003,-0.0113,0.9699,56.2000000000116
1.0987,1.117,-0.4852,0.0177,-0.0012,0.9717,56.2999999999884
0.4852,0.0092,-0.4852,-0.0253,-0.0052,1.0364,56.3999999999651
-0.8148,-1.0529,-1.0346,0.0006,-0.0116,1.0059,56.5
0.6684,0.4761,-0.238,0.0095,-0.0101,0.972,56.5999999999767
0.0183,0.6684,-0.531,-0.018,-0.0162,1.026,56.7000000000116
-0.2838,-0.3937,-0.705,-0.0034,-0.0024,1.0269,56.7999999999884
1.236,-0.3113,0.0275,-0.0122,-0.0027,0.9708,56.8999999999651
1.0071,0.0183,-0.2655,-0.0168,-0.0015,1.0089,57
-0.7599,-1.0346,-0.1373,0.0055,-0.0076,0.9967,57.0999999999767
0.2838,0.3204,0.2289,-0.0098,-0.007,1.0117,57.2000000000116
-0.1373,-0.3204,-0.1923,-0.0156,0.004,1.0086,57.2999999999884
-0.1648,-0.3662,-0.1007,-0.0052,0.0095,0.976,57.3999999999651
0.5768,-0.1099,0.1282,-0.0064,0.0082,1.0211,57.5
-0.7508,-0.6684,-0.3204,-0.0092,-0.0027,0.9882,57.5999999999767
0.1099,0.0183,-0.3204,0.0003,-0.0052,0.9854,57.7000000000116
0.6317,0.5127,-0.3571,0.0037,-0.0128,1.0205,57.7999999999884
-0.2747,-0.0183,-0.6409,0.0006,-0.0095,1.0034,57.8999999999651
0.4852,-0.824,-0.2747,-0.0046,-0.0082,0.9705,58
-0.1556,0.0275,-0.2655,-0.014,-0.0092,1.0373,58.0999999999767
-0.8515,-0.0916,-0.3845,0.0107,-0.0134,1.0013,58.2000000000116
0.4578,0.0824,-0.0549,-0.0027,-0.0031,0.9656,58.2999999999884
0.3388,-0.119,-0.3479,-0.0159,-0.0064,1.0065,58.3999999999651
-0.2564,-0.7416,-0.3662,0.0015,-0.0125,1.0022,58.5
0.6043,-0.7416,-0.0458,0.004,-0.0037,0.998,58.5999999999767
0.0641,-0.4852,-0.2655,0.0052,-0.0082,0.9873,58.7000000000116
0.293,0.2564,-0.3571,0.0024,-0.0055,1.0166,58.7999999999884
1.6755,0.7691,-0.0366,0,-0.0122,0.9885,58.8999999999651
0.1648,-0.1007,0.0549,-0.0131,-0.0076,1.0053,59
-0.293,-0.2289,0.2197,-0.0052,-0.0079,1.0056,59.0999999999767
0.4944,0.531,0.3571,0.0055,-0.0043,1.0163,59.2000000000116
-1.2268,0.4395,0.119,-0.0055,-0.022,0.9943,59.2999999999884
-1.2452,-0.3662,0.3296,-0.0143,-0.0137,0.9992,59.3999999999651
0.3662,0.8148,0.2747,-0.0104,-0.0095,0.9925,59.5
-1.5107,-0.2564,0.1556,-0.0125,-0.0043,1.0053,59.5999999999767
0.0275,-0.2747,0.3388,-0.0082,-0.0018,0.9836,59.7000000000116
0.5585,0.6134,0.3479,-0.0104,0.0058,0.9928,59.7999999999884
-1.0712,-0.1465,0.1373,-0.0085,-0.0092,1.0068,59.8999999999651
0.2655,-0.7782,0.0641,-0.0134,0,0.9674,60
0.293,-0.1556,0.0549,-0.0034,0.0104,1.0431,60.0999999999767
-0.6226,-0.7691,-0.0916,-0.0049,-0.0012,0.9845,60.2000000000116
0.8423,-0.7782,0.2655,0.0003,0.0137,0.9803,60.2999999999884
-0.2472,-0.2197,0.2197,-0.0058,0.0092,1.0147,60.3999999999651
-0.5676,-0.0641,-0.0549,-0.0049,0.0046,0.9824,60.5
0.7416,-0.1648,0.0092,-0.0009,-0.0037,1.0022,60.5999999999767
0.3388,-1.0437,0.0092,-0.0015,-0.0107,1.0144,60.7000000000116
0.3754,-0.5219,-0.0275,0.0031,0.0153,0.9848,60.7999999999884
2.4445,1.1811,0,0.004,0.0024,0.987,60.8999999999651
0.6409,0.6226,0.0092,-0.0067,-0.0101,1.0623,61
-0.3662,-0.0824,-0.0366,0.0052,-0.0156,1.0163,61.0999999999767
1.8494,0.238,0.1099,-0.0055,-0.014,0.9415,61.2000000000116
0.0458,0.531,0.4761,-0.0061,-0.0092,1.063,61.2999999999884
-0.9796,0.0275,0.3845,-0.0034,-0.0305,0.9888,61.3999999999651
1.7396,0.412,0.5768,-0.0067,0,0.9641,61.5
-0.3937,0.0916,0.531,-0.0055,-0.0104,1.0276,61.5999999999767
0.5585,0.4578,0.3021,-0.0076,-0.0211,0.9848,61.7000000000116
0.1648,-0.1099,0.5219,-0.0064,-0.0052,0.9946,61.7999999999884
-1.0712,-0.9613,0.705,-0.0043,-0.0037,0.9857,61.8999999999651
-0.0916,0.6958,0.7691,-0.0031,-0.0089,1.0355,62
-0.1099,1.822,0.5402,-0.011,0.0052,0.9632,62.0999999999767
-0.293,0.119,0.6867,-0.0247,0.0339,1.0218,62.2000000000116
0.4395,-1.5198,0.5493,-0.0192,0.0446,0.9668,62.2999999999884
0.705,-0.6867,0.4395,-0.0052,0.0369,1.0041,62.3999999999651
-2.3438,0.3845,0.3388,0.0162,0.0067,1.0092,62.5
0.0183,1.2909,-0.1831,-0.0101,0.0012,0.9781,62.5999999999767
0.4395,-0.7508,-0.1007,-0.0131,0.0021,0.9943,62.7000000000116
-0.5585,-0.7965,-0.1556,0.0015,0.0024,1.0102,62.7999999999884
0.824,0.2472,-0.4486,0.0018,-0.018,0.9885,62.8999999999651
1.5473,0.4486,-0.4212,0.007,-0.0034,0.9873,63
-1.4557,-0.4486,-0.5951,-0.0037,-0.0128,1.0038,63.0999999999767
-1.0712,-0.3388,-0.7965,0.0027,-0.0305,0.9784,63.2000000000116
0.6867,0.119,-0.705,0.0183,-0.0171,1.0327,63.2999999999884
-3.122,0.824,-0.4486,0.0015,-0.0388,0.979,63.3999999999651
0.8972,-0.0549,-0.7233,-0.0208,-0.0177,0.9848,63.5
0.3021,-2.0051,-0.705,-0.0061,-0.0027,1.0092,63.5999999999767
-1.7121,-0.3113,-0.5219,0.0266,-0.0229,1.0144,63.7000000000116
1.1261,1.3825,-0.4212,-0.0058,0.0122,0.9607,63.7999999999884
2.5452,-1.0346,0.0092,-0.022,0.0409,0.9897,63.8999999999651
-0.4212,-1.3092,-0.0366,-0.0009,0.0125,0.9928,64
0.7691,0.2838,-0.3113,0.0064,0.025,1.0031,64.0999999999767
1.3276,-0.2289,-0.0916,-0.007,0.029,0.9928,64.2000000000116
0.5127,-0.0916,0.4028,-0.0125,0.0266,1.0205,64.2999999999884
1.355,0.1282,0.6409,-0.0159,0.0461,0.987,64.3999999999651
-0.0916,-1.0346,0.943,-0.0043,0.0381,0.983,64.5
-0.6409,0.6317,0.8057,-0.004,0.0296,0.9897,64.5999999999767
-1.1994,0.1007,0.5127,-0.0119,0.0333,1.0254,64.7000000000116
-2.2065,-0.4578,0.6592,0.0015,0.0113,0.9867,64.7999999999884
-1.3825,0.5768,0.6043,-0.0046,0.0116,0.9973,64.8999999999651
-0.6317,0.1282,0.6592,-0.0168,0.0031,0.9653,65
1.5473,0.1282,0.7965,-0.0079,0.0253,1.0092,65.0999999999767
0.9064,0.7233,0.5768,-0.0125,0.0198,0.9925,65.2000000000116
1.8128,0.0092,0.412,-0.0119,0.0217,1.0028,65.2999999999884
0.9247,-0.4303,0.65,0.0012,0.0253,1.0343,65.3999999999651
-2.1699,0.6684,0.4028,-0.0061,0.0177,1.0028,65.5
0.4761,-0.2564,0.3662,-0.0137,0.0238,0.99,65.5999999999767
-0.7782,0.6775,0.174,0.0082,0.0174,1.0089,65.7000000000116
0.0824,0.9796,-0.2106,-0.0104,0.0238,0.9827,65.7999999999884
-0.3937,-1.2177,-0.1099,-0.0116,0.0119,0.9803,65.8999999999651
-0.1556,1.2543,-0.0916,0,0.0244,1.015,66
-1.117,0.3113,-0.3571,-0.0082,0.0235,1.0056,66.0999999999767
1.0437,0.174,-0.174,-0.0018,0.0043,0.9528,66.2000000000116
1.4466,0.8057,-0.119,-0.0092,0.0363,1.0129,66.2999999999884
1.1353,0.586,-0.2106,-0.0159,0.0076,0.9662,66.3999999999651
0.9064,0.0916,0,0.0122,0.007,1.012,66.5
-0.5951,1.529,-0.1923,-0.0171,0.0204,1.0315,66.5999999999767
-0.8332,0,0,-0.0323,0.0143,0.9549,66.7000000000116
-1.0437,-0.0275,-0.3113,0.0018,0,0.9668,66.7999999999884
-0.6684,1.0254,-0.5676,-0.0171,0.022,1.0199,66.8999999999651
-0.5402,-0.1282,-0.3479,-0.0128,-0.0018,0.9751,67
3.4059,0.6226,-0.1373,-0.0116,0.0162,0.9479,67.0999999999767
-0.238,-0.3021,-0.3937,-0.0241,0.036,1.0752,67.2000000000116
-1.1719,-0.4944,-0.3937,-0.004,-0.0037,0.9629,67.2999999999884
0.531,0.3113,-0.174,-0.0168,0.033,1.0245,67.3999999999651
-0.6592,-0.2197,-0.2564,-0.0198,0.0259,0.9708,67.5
0.7233,0.2838,-0.1556,-0.0055,0.0336,1.0132,67.5999999999767
0.4486,0.0366,-0.2564,-0.0232,0.0491,0.9983,67.7000000000116
-0.0824,-1.767,-0.1923,-0.0171,0.0443,1.0028,67.7999999999884
0.1007,0.238,-0.174,0.0128,0.0381,0.9952,67.8999999999651
-0.6684,0.2197,-0.2472,-0.018,0.0348,0.9836,68
-0.6317,-0.7874,-0.2747,-0.0125,0.0342,0.9986,68.0999999999767
0.5402,-0.1465,-0.2838,-0.0095,0.054,1.0227,68.2000000000116
-0.412,-0.6043,-0.2014,-0.0146,0.058,0.9745,68.2999999999884
1.5198,0.7416,-0.0183,0.0079,0.0491,0.965,68.3999999999651
0.5127,0.943,-0.1099,-0.0336,0.0623,1.0437,68.5
-0.3479,-1.117,-0.3479,-0.0122,0.0412,0.9958,68.5999999999767
0.3479,-0.0641,-0.238,-0.0061,0.061,1.0074,68.7000000000116
-0.6043,-0.238,-0.238,-0.0208,0.0516,1.0062,68.7999999999884
0.2014,-0.4028,-0.4578,0.0052,0.0409,0.9595,68.8999999999651
0.9064,0.6592,-0.2289,-0.0156,0.0592,1.0169,69
0.2289,-1.0987,-0.238,-0.0079,0.0378,1.0251,69.0999999999767
0.3662,0.1007,-0.3021,0.004,0.0534,1.0059,69.2000000000116
-0.1648,-0.0916,-0.238,-0.018,0.0439,0.9986,69.2999999999884
0.3113,0.531,-0.3662,-0.0037,0.0391,0.9696,69.3999999999651
0.1007,-0.6409,-0.1373,-0.0235,0.054,1.0034,69.5
-0.5402,0.1923,-0.4028,0.0024,0.0391,1.0132,69.5999999999767
0.9796,0.9705,-0.0824,-0.0082,0.0516,1.0016,69.7000000000116
-0.6134,-0.8698,-0.0732,-0.0165,0.0476,1.0038,69.7999999999884
0.0458,0.6775,-0.238,0.0031,0.0458,0.9861,69.8999999999651
0.1099,0.2289,-0.0549,-0.0195,0.0388,1.0065,70
-0.2747,0.0092,-0.4212,0.0018,0.0348,1.0074,70.0999999999767
0.3204,-0.2838,-0.1465,-0.0256,0.0482,0.9983,70.2000000000116
0.3479,0.3754,-0.5585,-0.0031,0.0479,1.0178,70.2999999999884
0.65,0.2838,-0.2747,-0.0156,0.0449,0.9992,70.3999999999651
-0.9247,-0.3021,-0.3571,-0.0003,0.0363,1.0211,70.5
-0.5493,0.5585,-0.1923,-0.0027,0.0369,0.9903,70.5999999999767
-0.238,-0.3296,-0.0916,-0.0113,0.0308,1.0001,70.7000000000116
-0.6134,0.0275,-0.3296,-0.0107,0.0241,0.969,70.7999999999884
0.0732,-1.0071,0,-0.0195,0.0089,0.9998,70.8999999999651
-1.0804,0.1282,-0.1831,0,0.0024,1.0068,71
0.3479,-0.0275,-0.0183,-0.0275,-0.0143,0.9879,71.0999999999767
0.4303,-0.1282,0.0183,-0.0082,-0.011,1.0285,71.2000000000116
0.7324,-0.0641,0.3937,-0.0201,0.0101,1.0019,71.2999999999884
0.4212,0.7965,0.3296,-0.015,0.0189,1.0352,71.3999999999651
0.7782,0.3845,0.6226,-0.0177,0.0128,0.9745,71.5
0.0732,-0.0458,0.9339,-0.0241,0.0107,1.0233,71.5999999999767
-0.9888,0.3113,1.0346,-0.0204,-0.0128,0.9809,71.7000000000116
-1.0529,-0.6134,1.0346,-0.0287,-0.0064,0.9897,71.7999999999884
-0.8972,-0.3021,0.6775,-0.0153,0.0052,0.9558,71.8999999999651
1.0987,-0.7782,1.0254,-0.032,0.0235,1.016,72
-0.705,-0.4212,0.9339,-0.0076,0.0119,1.001,72.0999999999767
0.8515,-0.3754,1.2085,-0.0293,0.0058,0.9909,72.2000000000116
-0.5768,0.0366,1.0071,-0.0308,0.0107,1.0144,72.2999999999884
0.3571,-0.6134,0.8972,-0.0266,0.0159,0.9723,72.3999999999651
1.1811,-0.1923,0.9156,-0.0153,0.0165,1.0221,72.5
-0.4852,-0.0641,0.7874,-0.0156,0.0128,0.9742,72.5999999999767
0.9156,-0.412,0.8881,-0.0217,0.0143,1.0025,72.7000000000116
-1.117,0.8698,0.6226,-0.0186,0.0076,1.0178,72.7999999999884
1.4557,0.2014,0.9339,-0.0226,0.0037,0.9796,72.8999999999651
0.1373,0.2564,0.6226,-0.0146,0.0308,1.0248,73
0.6226,0.2197,0.5585,-0.0116,-0.0027,0.9717,73.0999999999767
0.5219,0.5768,0.0366,-0.0168,0.0189,1.0559,73.2000000000116
-1.8677,-0.7782,0.0641,-0.0156,-0.011,0.9857,73.2999999999884
0.8698,-0.4486,-0.0732,-0.0027,0.0284,1.0034,73.3999999999651
-1.6114,0.6684,-0.0824,-0.0125,0.0101,0.9998,73.5
1.9776,-0.0092,-0.2014,-0.0162,0.0122,1.0038,73.5999999999767
-0.705,0.2747,-0.4944,-0.0085,0.0177,1.0166,73.7000000000116
0.8606,-0.2014,-0.6867,-0.0006,-0.0009,0.976,73.7999999999884
-0.1465,0.3662,-0.6684,-0.004,0.0198,1.0389,73.8999999999651
0.3845,-0.7324,-0.4212,-0.0073,0.0046,0.9461,74
0.6592,0.7782,-0.586,-0.0113,0.0089,1.0324,74.0999999999767
-0.4486,-0.6226,-0.4944,-0.0186,0.0134,0.9656,74.2000000000116
1.4191,-0.1556,-0.586,-0.0064,0.0287,1.0364,74.2999999999884
-1.7396,0.2838,-0.3113,0,0.0015,0.9909,74.3999999999651
0.6958,0.8606,-0.2655,-0.0098,0.0122,0.9787,74.5
-0.824,0.5036,0.0366,-0.0165,0.0204,1.0462,74.5999999999767
0.9156,0.5585,0.3388,-0.0101,0.0119,0.9378,74.7000000000116
0.3662,0.9247,0.5585,-0.0201,0.015,1.0147,74.7999999999884
-0.8515,-0.4669,0.4852,-0.0314,-0.0037,0.9864,74.8999999999651
0.3845,0,0.5493,-0.0177,0.0119,1.0147,75
-0.1282,0.3204,0.6867,-0.0266,0.0012,0.9824,75.0999999999767
0.9247,-0.1648,0.6958,-0.0089,0.0378,1.0208,75.2000000000116
-1.7762,0.3662,0.6226,-0.0385,0.0104,1.005,75.2999999999884
1.0071,-0.7324,0.3571,-0.0238,0.0076,0.9619,75.3999999999651
-1.4008,1.0437,0.5676,-0.0189,0.0049,1.0202,75.5
-0.6043,0.0458,0.4669,-0.0208,-0.014,0.9561,75.5999999999767
-0.3021,0.174,0.8057,-0.0235,0.0183,1.0077,75.7000000000116
-1.0529,0.2472,0.4944,-0.0308,0.0113,0.9851,75.7999999999884
0.7782,-0.1556,0.586,-0.0165,0.0363,1.0132,75.8999999999651
-1.1536,-0.238,0.6409,-0.0247,0.011,0.9717,76
1.1261,-0.6409,0.6317,-0.0143,0.0314,0.979,76.0999999999767
-0.9522,-0.7233,0.8972,-0.0336,0.014,1.0056,76.2000000000116
0.1007,0.0275,0.531,-0.0107,0.0012,0.9848,76.2999999999884
-0.6409,-0.2197,0.7599,-0.0269,0.0125,1.0367,76.3999999999651
-0.0458,-1.3001,0.2564,-0.0201,0.014,0.9915,76.5
1.3184,0.4761,0.7599,0.0012,0.0128,1.0022,76.5999999999767
-0.3937,0.3571,0.7233,-0.0296,0.0079,1.0105,76.7000000000116
0.6867,-0.119,0.5219,-0.0064,0.0223,1.0047,76.7999999999884
0.8423,0.1923,0.7691,-0.0259,0.0095,0.99,76.8999999999651
0.824,-1.1902,0.5127,-0.018,0.0067,0.994,77
-1.1261,0.0916,0.705,-0.0113,-0.0027,1.001,77.0999999999767
0.8972,-0.1648,0.4395,-0.0275,0.0101,0.9894,77.2000000000116
-0.0458,0.0366,0.7141,-0.0195,0.0082,1.0346,77.2999999999884
-0.6134,-0.531,0.5768,-0.0198,-0.0113,0.9403,77.3999999999651
-0.2289,0.4944,0.6226,-0.0073,-0.0064,1.0279,77.5
-1.0346,-0.0275,0.5219,-0.0262,-0.0266,0.9973,77.5999999999767
0.3204,-0.7691,0.2747,-0.0046,-0.0122,0.9793,77.7000000000116
-0.5036,-0.0824,0.6958,-0.015,-0.0232,0.9992,77.7999999999884
1.2543,-0.1556,0.2655,-0.0238,-0.0098,0.9891,77.8999999999651
0.1282,0.3662,0.7324,-0.0092,-0.0162,1.0346,78
-0.2106,-0.4303,0.2289,-0.0134,-0.0177,0.9998,78.0999999999767
-0.5127,-0.0641,-0.0092,0.0037,-0.0113,0.9946,78.2000000000116
-1.0071,-0.293,-0.65,-0.0064,-0.0342,0.9885,78.2999999999884
-0.5585,-1.3459,-1.6572,0.0171,-0.0098,0.9763,78.3999999999651
-0.9522,0.2472,-1.9776,0.0137,-0.0195,0.9851,78.5
0.4028,-0.8515,-2.9206,0.0061,-0.0156,0.9772,78.5999999999767
0.4486,-0.531,-2.8474,0.04,-0.015,1.0129,78.7000000000116
0.6592,0.705,-2.9389,0.0186,-0.0232,1.0074,78.7999999999884
0.0092,-1.1994,-3.0122,0.0269,-0.0162,0.9836,78.8999999999651
0.7874,0.3662,-2.7009,0.0275,-0.0168,1.026,79
-0.3479,-0.293,-3.0213,0.0137,-0.0082,1.0013,79.0999999999767
0.2655,0.4028,-2.6826,0.0412,0.0177,0.9882,79.2000000000116
0.1099,0.8698,-2.6276,0.0116,0.018,1.0019,79.2999999999884
-0.1099,-0.3296,-2.7375,0.0211,0.0195,0.9967,79.3999999999651
0.3204,0.7965,-2.6002,0.0189,-0.011,0.9995,79.5
-0.7416,-0.7691,-2.8291,0.0211,-0.0064,0.9967,79.5999999999767
-0.3571,0.824,-2.4445,0.0317,-0.0055,1.0022,79.7000000000116
0,-0.3204,-2.0692,-0.0024,0.0177,0.9922,79.7999999999884
-0.6592,-0.412,-1.4466,0.0098,0.0125,0.9799,79.8999999999651
1.9868,1.4283,-0.8972,0.0009,0.032,1.0294,80
-0.4761,-0.174,-0.6684,-0.0134,0.0018,1.0251,80.0999999999767
-0.0549,-0.2106,-0.2289,0.0027,0.0064,0.951,80.2000000000116
0.3113,0.6592,0.0183,-0.0101,0.0354,1.0025,80.2999999999884
-1.7945,0.0183,0.1831,-0.0027,0.0098,1.0001,80.3999999999651
0.8789,0.998,0.2655,-0.0143,0.0262,1.0065,80.5
-0.3937,-0.5585,0.1831,-0.0223,0.0348,1.0221,80.5999999999767
0.8515,-0.2289,0.2747,-0.0089,0.0162,0.9336,80.7000000000116
1.2268,-0.0183,0.2655,-0.0189,0.0537,1.0028,80.7999999999884
-0.6592,-0.4852,0.412,-0.0125,0.0119,1.0224,80.8999999999651
0.5402,0.4852,0.3662,-0.0107,0.0143,1.0089,81
0.2197,-1.0987,0.5402,-0.014,0.0281,1.034,81.0999999999767
0.0366,0.65,0.5951,-0.0067,0.0031,0.9275,81.2000000000116
0.3845,0.1648,0.5127,-0.0177,0.0232,1.0117,81.2999999999884
-1.2909,-0.9613,0.5676,-0.0183,0.0076,1.0147,81.3999999999651
0.0458,-0.412,0.3113,0.0009,0.0168,0.9522,81.5
0.3479,0.5402,0.7141,-0.0046,0.0131,1.0193,81.5999999999767
-0.7141,0.8881,0.1923,-0.0137,-0.0034,0.9937,81.7000000000116
0.3388,-0.6775,0.3937,-0.015,-0.0006,1.0202,81.7999999999884
-0.3204,0.0458,0.5768,-0.0089,-0.0101,0.9598,81.8999999999651
1.6022,0.9888,0.586,-0.0159,0.0174,1.023,82
-1.2818,-0.2564,0.6317,-0.0208,-0.0101,1.0273,82.0999999999767
0.4578,-0.3021,0.6043,-0.0095,0.0143,0.9876,82.2000000000116
-0.3113,-0.5951,0.6958,-0.0226,0.0092,1.0001,82.2999999999884
-0.65,0.3021,0.4212,-0.0122,-0.0061,0.9796,82.3999999999651
1.1078,0.3021,0.5402,-0.0247,0.0055,1.0038,82.5
-0.705,-0.705,0.412,-0.0104,-0.0092,0.9906,82.5999999999767
1.3184,0.0092,0.4944,-0.0095,0.0223,0.9604,82.7000000000116
0.4028,-0.3662,0.5493,-0.0116,0.018,1.0257,82.7999999999884
0.4486,0.6317,0.3204,-0.0131,0.0272,0.9967,82.8999999999651
1.3459,0.3204,0.6043,-0.0241,0.0363,1.0144,83
-0.3662,-0.5493,0.4212,-0.0089,0.0101,1.0092,83.0999999999767
0.8881,0.7599,0.586,-0.0018,0.0406,0.9433,83.2000000000116
-0.6134,-0.0916,0.7508,-0.0223,0.018,1.0346,83.2999999999884
-0.531,0.2289,0.3204,-0.0192,0.0201,0.9616,83.3999999999651
1.4924,0.3204,0.8423,-0.0195,0.0458,1.0099,83.5
-0.6775,0.2655,0.6592,-0.0122,0.0287,1.0089,83.5999999999767
0.5768,0.1007,0.4761,-0.0195,0.0543,0.979,83.7000000000116
-0.7691,-0.4761,0.4395,-0.018,0.0162,0.9848,83.7999999999884
-0.5585,-0.2655,0.1831,-0.0159,0.0159,0.9983,83.8999999999651
-0.0549,-0.3296,0.2289,-0.022,-0.0079,1.0089,84
-0.4395,0.4578,-0.1007,-0.0037,-0.025,1.0031,84.0999999999767
0.4395,0.0549,-0.0824,-0.0049,-0.0101,0.9882,84.2000000000116
-0.4212,0.3296,-0.0732,-0.0165,-0.0247,1.0065,84.2999999999884
-0.2289,0.412,-0.3571,-0.0101,-0.0009,0.9882,84.3999999999651
0.65,-0.6226,-0.1099,-0.0183,-0.0186,1.0175,84.5
-0.0275,0.586,-0.586,0.0015,-0.0159,0.9888,84.5999999999767
-0.705,0.4028,-0.3754,-0.0061,-0.0015,0.9592,84.7000000000116
0.9247,-0.3845,-0.3204,-0.025,-0.0046,1.0547,84.7999999999884
-0.7141,0.1007,-0.3388,-0.0089,-0.0336,0.9888,84.8999999999651
1.0437,0.0549,-0.0458,-0.0012,-0.0186,0.9662,85
0.7782,1.4374,-0.1831,-0.0119,-0.0211,1.0425,85.0999999999767
2.0692,0.4761,0.4212,-0.0223,-0.0076,0.969,85.2000000000116
0.293,0.7141,1.5015,-0.022,-0.0055,1.0367,85.2999999999884
-0.6775,1.5473,1.886,-0.029,-0.0223,1.0034,85.3999999999651
-0.2289,0.1923,2.5636,-0.04,-0.0085,1.0303,85.5
-3.2228,1.1353,2.1424,-0.0507,-0.0272,0.9934,85.5999999999767
-1.7945,-0.8148,2.3988,-0.0427,-0.0146,0.9424,85.7000000000116
-1.2635,-0.412,1.9227,-0.0424,-0.0162,1.048,85.7999999999884
-2.71,-1.1536,0.9705,-0.0262,-0.0461,0.9558,85.8999999999651
0.9613,-1.3367,0.1282,-0.0009,-0.0568,0.9088,86
0.4212,0.705,-0.8057,0.0024,-0.032,1.0053,86.0999999999767
-2.9572,-0.2197,-2.2156,-0.0153,-0.0998,0.9897,86.2000000000116
-1.3459,-3.1312,-2.4995,0.0122,-0.1065,0.9992,86.2999999999884
-2.6093,0.0458,-2.9389,0.0504,-0.1123,0.9687,86.3999999999651
0.2472,-0.3479,-3.7812,0.0168,-0.1062,0.9375,86.5
1.2452,-0.4028,-3.4883,0.0107,-0.1053,1.041,86.5999999999767
-0.4944,0.2289,-4.706,0.04,-0.1151,0.9943,86.7000000000116
-0.7782,-1.2452,-4.5228,0.0177,-0.0974,1.0062,86.7999999999884
1.5473,-1.3001,-4.4679,0.0272,-0.1141,0.9806,86.8999999999651
-0.119,-0.4944,-4.8433,0.0345,-0.0946,1.0562,87
0.7324,-0.5768,-4.6693,0.032,-0.1019,0.9613,87.0999999999767
1.3916,-0.9156,-4.239,0.0198,-0.0858,0.9818,87.2000000000116
1.5381,0.2106,-4.532,0.0372,-0.0812,1.026,87.2999999999884
-0.6958,0.5585,-4.8891,0.0235,-0.0858,0.9922,87.3999999999651
0.5219,-0.9156,-4.8433,0.025,-0.0735,0.9809,87.5
0.2472,-0.0458,-4.6693,0.0333,-0.0931,1.0077,87.5999999999767
-1.1078,0.8698,-5.0081,0.0241,-0.0967,1.0175,87.7000000000116
0.9156,-1.0987,-4.7975,0.0168,-0.0772,0.9903,87.7999999999884
1.0987,-0.0732,-4.4862,0.0351,-0.0647,0.9714,87.8999999999651
0.9613,-0.2838,-4.6419,0.0189,-0.0049,1.0092,88
-0.2106,0.412,-4.1475,0.0345,-0.025,0.9934,88.0999999999767
0.1007,0.1007,-3.3052,0.0006,-0.0143,1.0169,88.2000000000116
-0.8332,-0.5036,-2.3713,0.0006,-0.0204,1.0224,88.2999999999884
-0.3662,-0.8881,-1.5564,0.0247,-0.0098,0.9772,88.3999999999651
-0.3204,2.0875,-0.6043,0.0043,-0.0027,1.0007,88.5
0.5676,-0.2106,-0.5585,-0.0293,0.0043,0.9909,88.5999999999767
0.6867,-0.9522,0.5036,-0.0034,0.0299,1.0132,88.7000000000116
0.6134,0.1373,1.0804,-0.0131,0.0323,0.9946,88.7999999999884
1.3916,0.4303,1.4649,-0.0089,0.0528,0.9787,88.8999999999651
0.586,-0.0641,1.9318,-0.0192,0.0623,1.0181,89
1.5564,-0.6867,1.9868,-0.0195,0.0821,0.997,89.0999999999767
0.3113,-0.6409,2.0325,-0.0177,0.087,1.0202,89.2000000000116
1.6846,0.5127,1.7762,0.0037,0.0491,0.9925,89.2999999999884
0,-0.1099,2.3804,-0.0266,0.0714,1.0193,89.3999999999651
-0.0641,-0.6134,2.06,-0.0269,0.0488,0.9891,89.5
-0.0916,-1.1536,1.9044,0.0024,0.0821,1.0117,89.5999999999767
0.3113,-0.1373,2.3438,-0.0058,0.079,0.9928,89.7000000000116
-0.8606,-0.4486,2.7284,-0.0107,0.0757,1.0327,89.7999999999884
0.4486,-0.5951,2.179,-0.0204,0.062,0.9503,89.8999999999651
1.648,-0.9156,2.5452,0.0031,0.0977,0.987,90
-0.3021,0.5402,2.6368,-0.0244,0.0797,1.0382,90.0999999999767
-0.6592,-0.5036,2.353,-0.0098,0.0629,0.9995,90.2000000000116
-0.3296,-1.0437,2.2248,0.0018,0.0714,1.0251,90.2999999999884
-0.8606,0.293,2.3713,-0.0076,0.0525,1.0324,90.3999999999651
0.3754,0.3937,2.1699,-0.014,0.0659,0.9967,90.5
0.5127,-0.6317,1.5748,0.0043,0.0635,0.987,90.5999999999767
0.0641,0.9796,2.0234,0.0058,0.0565,1.012,90.7000000000116
-0.7782,-0.3113,1.6114,-0.0311,0.0455,1.0193,90.7999999999884
-0.7874,-1.1994,1.6022,0.0049,0.036,0.9873,90.8999999999651
-0.3662,1.7029,1.7762,0.0085,0.0256,0.9915,91
-1.8494,0.2472,1.7029,-0.0211,-0.0061,0.9949,91.0999999999767
-0.4578,-0.5768,1.41,-0.0064,-0.0116,0.9827,91.2000000000116
-0.0275,-0.3662,1.4832,0.0049,-0.0024,0.9842,91.2999999999884
-1.41,-0.5219,1.3733,0.004,-0.0247,0.9949,91.3999999999651
2.1332,-0.0549,0.412,0.0089,-0.0125,1.0105,91.5
0.119,0.2472,0.1648,0.0293,-0.0143,0.9943,91.5999999999767
1.6388,-0.2014,0.1556,0.0003,0.007,0.9702,91.7000000000116
2.8199,-0.531,-0.119,0.0073,0.0433,1.0382,91.7999999999884
-0.0458,0.4486,0.0183,0.0168,0.0491,0.997,91.8999999999651
-0.293,0.4486,0.2014,0.0009,0.029,0.9925,92
-0.8057,-0.8606,-0.2014,-0.0079,0.0211,1.0202,92.0999999999767
-2.4171,-0.4028,-0.3204,0.0183,0.004,0.9867,92.2000000000116
-1.8311,0.3204,0.0549,0.0107,-0.0021,1.0199,92.2999999999884
0.0458,0.0183,-0.1831,-0.0043,-0.0037,0.9723,92.3999999999651
-0.3021,-0.4395,-0.1648,0.0128,-0.0092,0.9659,92.5
0.8423,0.2289,-0.0458,0.0122,-0.0067,1.0144,92.5999999999767
0.998,0.4486,-0.3204,0.0027,-0.0098,1.0062,92.7000000000116
0.293,-0.6958,-0.1465,0.0195,0.0156,1.0105,92.7999999999884
0.7782,0,0.0641,0.0143,0.0165,1.0199,92.8999999999651
0.1465,-0.0458,-0.0549,0.0034,0.0388,0.9891,93
-1.3916,-0.8148,-0.0549,0.0119,0.0284,1.005,93.0999999999767
-0.174,0,-0.1007,0.0165,0.0125,0.9888,93.2000000000116
-0.998,0.998,-1.0437,0.0275,0.0021,1.0147,93.2999999999884
-0.5036,-0.0549,-1.0071,0.018,0.0201,0.9879,93.3999999999651
-1.4374,-0.3113,-0.7141,0.0061,0.0095,0.9967,93.5
-2.765,-1.4008,-1.5473,0.0266,-0.0006,0.9806,93.5999999999767
-2.0325,1.5198,-0.4486,0.0531,0.0104,1.012,93.7000000000116
-1.9959,2.646,-0.7324,-0.0003,-0.0186,1.0117,93.7999999999884
2.1149,-0.1556,-1.0712,-0.0015,-0.0217,0.8914,93.8999999999651
0.9156,-0.2197,-0.9064,0.0107,0.0055,1.1039,94
-0.5768,-0.1831,-0.1465,0.0189,-0.0296,0.9238,94.0999999999767
3.4242,1.9135,0.5493,-0.0082,-0.0015,1.0593,94.2000000000116
-0.6592,-0.824,1.3276,0.0046,-0.0089,0.9812,94.2999999999884
-0.6684,2.0692,1.1994,-0.0125,-0.0244,1.0218,94.3999999999651
0.1556,-1.2726,0.4486,0,-0.0024,0.9482,94.5
0.6958,2.0692,1.1994,-0.0031,-0.0339,1.0779,94.5999999999767
-1.5473,-1.3916,-0.0458,-0.0018,-0.0439,0.9528,94.7000000000116
2.591,0.1556,0.65,0.0049,-0.0061,0.9763,94.7999999999884
-0.8148,0.586,0.6043,0.0018,-0.015,1.0135,94.8999999999651
0.5951,0.5219,0.943,0.0052,-0.0272,1.0102,95
0.4852,0.9796,1.4924,-0.0201,-0.0134,1.0306,95.0999999999767
0.5951,0.3113,1.2726,-0.0244,-0.0186,0.965,95.2000000000116
0.3937,-0.1007,1.2635,-0.0159,-0.0116,0.9937,95.2999999999884
0.4944,-0.0916,1.0804,-0.0208,-0.0357,1.0389,95.3999999999651
-2.4812,-0.6317,0.9796,-0.0107,-0.0632,0.976,95.5
-0.3021,-0.6134,1.0437,-0.0031,-0.043,1.0062,95.5999999999767
-1.3642,1.2452,0.9888,0.0107,-0.0644,1.0022,95.7000000000116
-0.7416,0.7782,0.5402,-0.0119,-0.0662,0.9787,95.7999999999884
-1.236,-0.4761,0.7782,-0.0159,-0.0497,0.9806,95.8999999999651
1.7121,-0.6684,0.7233,-0.0195,-0.0635,0.9839,96
1.7396,0.1007,0.7965,0.004,-0.0491,1.0392,96.0999999999767
1.474,0.9247,0.9522,0.0037,-0.0583,0.9885,96.2000000000116
0.2014,0.9064,1.3642,-0.025,-0.0461,1.0221,96.2999999999884
2.3164,-0.1282,0.998,-0.0186,-0.0485,0.9702,96.3999999999651
-0.9247,0.0732,0.6684,-0.0021,-0.0455,1.0767,96.5
-1.9776,0.4212,0.5585,0.0073,-0.0735,0.961,96.5999999999767
-0.0366,-0.7416,1.117,-0.0293,-0.0485,1.0047,96.7000000000116
0.4395,-0.6867,0.4944,-0.0333,-0.0568,1.0041,96.7999999999884
-0.7691,-3.0122,0.0732,0.018,-0.0674,0.9738,96.8999999999651
0.1923,1.9135,0.7324,0.0372,-0.0708,1.0215,97
1.0071,2.5819,0.8332,-0.0116,-0.0699,0.9775,97.0999999999767
0.1099,-0.0549,0.3571,-0.0473,-0.0632,1.0117,97.2000000000116
-0.412,-2.9389,0.1648,-0.0058,-0.08,1.0144,97.2999999999884
-0.0824,-0.8881,0.2747,0.0168,-0.076,0.9821,97.3999999999651
-0.1373,1.3642,0.8332,0.0143,-0.0662,1.0184,97.5
-0.6043,0.5402,1.0254,-0.0247,-0.0891,0.983,97.5999999999767
-0.0275,-0.6684,0.3937,-0.0107,-0.0784,1.012,97.7000000000116
-0.9339,-1.0895,0.0641,-0.0055,-0.0809,0.9738,97.7999999999884
1.0529,0.3296,0.2838,0.0189,-0.0815,1.0245,97.8999999999651
0.6775,0.9705,0.5768,-0.004,-0.0681,0.9983,98
0.2472,0.8881,0.293,-0.0031,-0.0729,0.9684,98.0999999999767
0.4944,-0.2197,0.3479,-0.0308,-0.0787,1.0013,98.2000000000116
0.8881,-2.8932,-0.0092,-0.0143,-0.0583,1.0486,98.2999999999884
0.6684,-0.3845,1.5473,0.025,-0.0366,0.9806,98.3999999999651
1.0895,1.7579,2.2065,0,-0.0464,0.9781,98.5
0.174,1.2177,2.9481,-0.0259,-0.0208,1.0135,98.5999999999767
-0.65,0.3662,4.1932,-0.0351,-0.0433,0.9931,98.7000000000116
-0.7782,-0.3204,5.4567,-0.0302,-0.0305,0.9775,98.7999999999884
-0.5493,1.0987,6.9399,-0.0345,-0.047,0.9803,98.8999999999651
-0.3479,2.0783,8.3682,-0.0537,-0.0485,1.0419,99
0.6867,-0.0549,9.4302,-0.069,-0.0452,1.0089,99.0999999999767
-0.7141,-0.4028,10.1993,-0.0629,-0.0354,1.0056,99.2000000000116
0.5219,-0.0549,11.774,-0.0388,-0.0229,0.9479,99.2999999999884
-1.1444,0.2564,12.5156,-0.076,-0.0443,1.0453,99.3999999999651
-0.5402,-0.5219,12.8727,-0.054,-0.0342,0.9781,99.5
-0.3571,0.0549,14.301,-0.0623,-0.0235,0.9772,99.5999999999767
-0.3571,0.3296,15.7201,-0.0623,-0.0308,1.0236,99.7000000000116
0.238,0.3754,17.6336,-0.0772,-0.0247,0.9851,99.7999999999884
-1.2909,-1.2452,16.9469,-0.079,-0.0269,1.0108,99.8999999999651
-0.3296,0.3571,18.3294,-0.0613,-0.0296,0.9934,100
-0.998,0.0641,19.776,-0.0855,-0.0287,0.9915,100.099999999977
-0.3204,-0.5402,19.7394,-0.0745,-0.0305,0.9845,100.200000000012
-1.062,-0.2655,20.1147,-0.0708,-0.0342,0.9943,100.299999999988
-0.0183,-0.0549,21.2592,-0.079,-0.036,1.0034,100.399999999965
-0.824,0.3113,22.0923,-0.0757,-0.0479,0.9934,100.5
-0.0366,0.7691,22.9713,-0.0745,-0.0308,0.9873,100.599999999977
-0.4852,0.0458,22.3945,-0.0665,-0.0421,1.0205,100.700000000012
0.119,0.5951,21.9642,-0.0687,0.0073,1.0157,100.799999999988
0,1.0987,22.4494,-0.0732,0.0125,0.9967,100.899999999965
-0.0549,0.4486,22.6783,-0.0913,0.0244,1.0013,101
0.3662,0.0183,23.2276,-0.0809,0.0488,0.9857,101.099999999977
0.6317,0.7233,24.3355,-0.0879,0.0793,1.0089,101.200000000012
0.2655,0.6409,25.1686,-0.1093,0.09,1.0007,101.299999999988
0.1923,0.5402,26.5328,-0.1135,0.0858,1.012,101.399999999965
0.293,0.7324,27.8329,-0.1114,0.0919,0.9931,101.5
0.2014,1.2635,29.3802,-0.1193,0.0897,1.0144,101.599999999977
-0.5768,1.2085,30.314,-0.1492,0.0519,0.9903,101.700000000012
-1.6114,-0.0275,31.2021,-0.1502,-0.0253,1.0041,101.799999999988
-1.2452,-0.5127,30.781,-0.1413,-0.0375,1.0074,101.899999999965
-0.5585,-0.3571,30.3049,-0.1239,-0.0143,1.0138,102
-0.8423,0.0824,30.195,-0.1306,-0.0009,0.9885,102.099999999977
-0.7782,0.1648,30.4422,-0.1392,0.0214,1.0068,102.200000000012
-1.3184,-0.293,30.5063,-0.1401,0.04,1.0016,102.299999999988
-1.3642,0.3021,30.9458,-0.1462,0.0784,0.9815,102.399999999965
-2.2156,1.0071,32.3832,-0.134,0.0714,1.0059,102.5
-3.5707,0.4944,33.0058,-0.17,0.0021,0.9928,102.599999999977
-2.884,-0.6592,33.5002,-0.1767,-0.0531,0.9955,102.700000000012
-1.8677,-0.7324,32.9783,-0.1657,-0.0507,1.0105,102.799999999988
-0.586,-0.4303,32.7403,-0.1575,-0.0403,0.9778,102.899999999965
0.7416,0.5219,33.1065,-0.1389,0.0073,0.9665,103
-0.6226,1.7579,33.3354,-0.1538,0.04,0.9754,103.099999999977
-0.6958,1.7121,33.9396,-0.1886,0.043,0.9665,103.200000000012
-0.412,0.5585,35.5235,-0.2023,0.0647,0.9888,103.299999999988
-1.1902,0.998,36.2377,-0.2164,0.0494,1.0071,103.399999999965
-0.412,0.705,37.0617,-0.2191,0.0549,1.0028,103.5
-1.7121,-0.1465,38.0688,-0.2365,0.0159,1.0041,103.599999999977
-1.4557,0.0275,38.8195,-0.2319,0.0439,1.0068,103.700000000012
-0.6134,0.8148,39.5154,-0.2286,0.0192,0.969,103.799999999988
-0.9247,0.7874,39.8358,-0.2423,-0.0125,0.9809,103.899999999965
-1.4466,0.119,38.8379,-0.2481,-0.0687,0.9647,104
0,-0.2106,37.7941,-0.2383,-0.0461,1.0154,104.099999999977
0.1831,-0.3479,36.3567,-0.2185,-0.0388,1.005,104.200000000012
-0.6226,-0.6226,34.5897,-0.1944,-0.0385,0.9922,104.299999999988
-1.2726,-0.7416,32.0353,-0.2005,-0.0357,1.0327,104.399999999965
-0.4395,-0.119,31.193,-0.1691,-0.0394,0.99,104.5
0.0092,-0.0275,29.7464,-0.1755,0.0058,0.9662,104.599999999977
-0.7324,-0.1373,28.1259,-0.1639,0.0455,1.0166,104.700000000012
-0.4944,-0.0549,28.0251,-0.173,0.0678,0.9906,104.799999999988
-0.8515,-0.1007,27.7688,-0.1627,0.0739,1.0074,104.899999999965
0.0275,0.6043,27.4117,-0.1831,0.072,0.99,105
-0.238,1.0254,26.6701,-0.1907,0.0668,1.0193,105.099999999977
-0.7508,-0.3296,26.3039,-0.1755,0.0668,0.9885,105.200000000012
-0.8972,-0.4669,25.6172,-0.1737,0.0714,1.0202,105.299999999988
-0.3845,0.0549,24.5918,-0.1682,0.0732,0.9583,105.399999999965
-0.7233,0.1831,23.5847,-0.1651,0.0739,1.0089,105.5
-0.8881,-0.9796,21.2043,-0.1556,0.058,0.9946,105.599999999977
-0.824,-1.7945,18.366,-0.1358,0.0702,1.0034,105.700000000012
-0.5585,-1.7029,16.187,-0.1035,0.0583,0.997,105.799999999988
-0.4212,0,13.8249,-0.0913,0.0467,0.9879,105.899999999965
-0.1282,-0.7691,11.362,-0.0934,0.0366,0.9757,106
-0.7324,-1.7945,9.5492,-0.0763,0.0555,1.0172,106.099999999977
-0.1923,-0.3662,8.4231,-0.0467,0.0522,0.943,106.200000000012
0.0275,1.3916,6.9765,-0.0671,0.0668,1.041,106.299999999988
0.4212,-2.06,5.4659,-0.0647,0.0592,0.9857,106.399999999965
-1.4191,-2.3988,4.77,-0.0201,0.0363,0.9946,106.5
1.2909,1.3001,3.3601,-0.0113,0.0006,0.9561,106.599999999977
-0.9705,0.2655,0.7965,-0.0226,-0.0037,1.0266,106.700000000012
-0.6775,-1.5473,-1.236,-0.0125,-0.0323,1.0334,106.799999999988
0.4761,-0.3662,-2.2065,0.0488,0.004,0.9799,106.899999999965
0.3937,1.7304,-2.7924,0.0146,0.0208,1.0135,107
-0.3937,-0.4578,-3.3418,0.0037,0.018,0.9696,107.099999999977
1.1536,1.1628,-2.8199,0.0336,0.029,0.9906,107.200000000012
-2.7467,0.531,-3.4059,-0.0049,0.029,1.062,107.299999999988
0.3296,-0.65,-3.2594,0.0076,0.0296,0.9418,107.399999999965
1.1536,-0.4852,-2.8748,0.025,0.0488,1.0001,107.5
0.0916,1.5656,-3.1129,0.0174,0.0204,0.997,107.599999999977
0.4944,-0.293,-3.3967,-0.0076,0.0128,0.9772,107.700000000012
0.5127,-1.2635,-3.2228,0.0146,0.0238,1.0266,107.799999999988
-0.8423,0.0549,-3.122,0.0262,0.0165,0.9934,107.899999999965
-0.1831,0.6226,-3.1312,0.0037,0.0159,0.9732,108
0,-1.236,-3.0488,0.0107,0.018,0.9842,108.099999999977
0.3021,-0.1099,-3.2136,0.0278,0.0275,1.0001,108.200000000012
0.6867,0.5036,-3.2777,0.0027,0.0012,1.019,108.299999999988
-1.1444,-1.8311,-3.296,0.0198,0.0031,1.0105,108.399999999965
0.9247,0.3937,-3.3143,0.0296,0.0122,0.9793,108.5
-0.3388,0.5036,-3.2136,0.0101,0.0241,1.0453,108.599999999977
-0.9247,-1.2177,-3.3326,-0.0024,0.0122,0.9973,108.700000000012
0.7233,-0.0275,-3.4059,0.0278,0.0305,0.9543,108.799999999988
1.4374,0.3388,-3.2319,0.0146,0.0247,1.0569,108.899999999965
0.4761,-0.9339,-3.534,0.0168,0.0107,1.0034,109
1.6205,0.3845,-3.4059,0.0351,0.0284,0.9632,109.099999999977
1.5473,1.1811,-3.3235,0.0156,0.0204,1.0266,109.200000000012
-0.8515,-1.236,-3.3509,0.014,0.015,1.0483,109.299999999988
-0.8972,-0.0458,-3.2502,0.0314,0.0159,0.9659,109.399999999965
0.8606,1.5564,-2.9298,0.022,0.015,0.9922,109.5
-1.117,0.238,-2.9572,0.0119,-0.0171,1.0312,109.599999999977
0.3021,-0.1373,-2.6368,-0.0052,0.0177,1.008,109.700000000012
1.8036,0.3662,-1.5748,0.0085,0.033,0.9711,109.799999999988
-0.4669,-0.4486,-1.236,0.0061,0.0421,1.0175,109.899999999965
-0.5768,0.943,-0.6592,-0.0134,0.0204,1.0453,110
-2.4354,-0.2747,0.2289,-0.0174,0.0168,0.9705,110.100999999966
-1.0712,0.0183,0.2564,-0.0153,0.0162,0.9818,110.200000000012
-2.9023,-0.5219,0.1373,-0.0089,0.0162,1.0062,110.299999999988
-0.7599,-0.3021,0.2014,-0.0104,-0.0043,1.005,110.399999999965
-0.0183,-0.0732,0.1923,0.0027,-0.0015,0.9842,110.500999999989
0.8972,0.3754,0.3388,0,0.0052,0.9503,110.599999999977
1.1628,0.6775,0.3204,-0.0183,-0.004,1.0331,110.700000000012
-0.2289,-0.174,0,-0.014,0,1.0501,110.799999999988
0.9339,-0.2747,0.3296,-0.0027,0.0024,0.947,110.901000000013
0.4944,-0.8789,0.4578,-0.0217,0.0055,1.0126,111
-0.2747,-0.4395,0.1923,-0.004,0.0113,1.012,111.100999999966
-0.8881,-0.0732,0.3571,0.0006,-0.0101,0.9693,111.200000000012
0.9705,-0.4212,0.2655,-0.0116,-0.004,1.0132,111.299999999988
0.3296,-0.8606,0.0183,-0.0116,0.0116,1.0251,111.399999999965
-0.7965,-0.8057,0.0641,0.0015,-0.014,0.9607,111.5
0.705,-1.2268,0.1923,-0.0024,0.0061,0.9961,111.599999999977
-0.4944,-0.3937,-0.0275,0.0052,0.0146,1.0221,111.700000000012
-0.3204,-0.0916,0.0458,0.0061,0.0055,0.9479,111.799999999988
0.9888,-0.0641,0.0916,-0.0049,0.014,1.0437,111.899999999965
-1.7212,-0.4578,-0.3113,0.0043,-0.0006,0.9937,112
-1.1536,-0.4303,-0.1648,0.0134,0,0.9677,112.100999999966
-0.6775,0.2472,-0.1282,0.0064,0.0119,1.0404,112.201000000001
-1.7853,0.4944,-0.3113,0.0009,-0.0061,0.9754,112.299999999988
0.0824,-0.3388,-0.0366,0.0015,0.0043,0.9619,112.399999999965
0.1923,-0.0732,-0.0732,0.0046,0.0049,1.0205,112.5
-0.1465,0.6226,-0.1099,-0.0003,0.0153,0.9946,112.599999999977
0.6317,0.0732,0.0092,0.0031,0.0104,0.9937,112.700000000012
0.0824,0.2472,-0.1373,-0.0064,0.0177,0.9986,112.799999999988
-0.0183,0.2564,-0.2289,-0.007,0.0348,1.0337,112.901000000013
1.7029,0.3571,-0.238,0.0119,0.0092,0.9848,113
-0.6226,1.0346,-0.3204,-0.0061,0.0153,1.0147,113.099999999977
-0.3845,-0.0549,-0.6409,-0.0037,-0.0073,0.9772,113.201000000001
0.8515,0,-0.7324,0.0067,0.0095,1.0517,113.299999999988
-0.943,0.8789,-0.6684,0.0055,0.0116,0.9772,113.401000000013
1.7487,0.5036,-0.531,-0.0018,0.0134,0.9626,113.5
0.2472,-0.1465,-0.7691,-0.0159,0.0327,1.0855,113.599999999977
-0.7141,-1.1994,-0.6043,0.0061,0.0293,0.9687,113.700000000012
2.5086,0.6409,-0.7965,0.0153,0.0339,0.9897,113.799999999988
1.0071,0.5402,-0.8972,0.0067,0.0208,1.0163,113.899999999965
-0.2197,0.1556,-1.1261,-0.0031,0.0006,0.9903,114
1.6938,-0.824,-1.3459,0.0208,0.0299,1.0535,114.099999999977
-1.6572,1.1353,-0.9064,0.0082,-0.0113,1.0077,114.201000000001
0.174,0.0458,-1.0529,0.007,-0.0049,0.9626,114.299999999988
0.6317,0.7965,-0.8148,0.0046,0.0241,1.0422,114.399999999965
-1.7945,-0.3845,-0.8148,-0.0098,-0.011,0.9821,114.500999999989
0.65,-0.6226,-1.0437,0.0104,0.0189,1.019,114.600999999966
-1.7579,0.4669,-0.6226,0.0021,-0.0085,0.9909,114.700000000012
1.2268,-0.4395,-0.6226,-0.0079,-0.0214,1.0004,114.799999999988
2.4079,-0.119,-0.1373,0.0098,0.0137,1.0349,114.899999999965
-0.3113,1.1444,0.1648,-0.0119,-0.022,0.9784,115
2.2431,-0.4303,-0.0641,-0.0159,0.007,1.0376,115.100999999966
-1.8494,-0.7965,0.3937,-0.0061,0.0125,1.0343,115.200000000012
0.4578,0.4669,0.2747,0.004,-0.0119,0.9452,115.299999999988
0.9705,0.9339,0.6317,0.0064,0.0269,1.0367,115.399999999965
-2.2065,0.8423,0.586,-0.0235,0.0034,0.9696,115.500999999989
-0.5585,0.8698,0.1373,-0.0092,0.0131,0.9867,115.599999999977
-0.9796,0.7141,0.531,-0.0064,0.0388,1.0208,115.701000000001
-0.5951,-0.0549,0.3662,-0.032,0.0266,0.9891,115.799999999988
0.1465,0.3296,0.4028,0.011,0.0055,0.9091,115.901000000013
-0.1923,2.1882,0.9339,-0.029,0.0137,1.0663,116.000999999989
-3.6622,0.0824,-0.1373,-0.0357,-0.043,0.9903,116.099999999977
1.0895,-0.2472,0.238,-0.0021,-0.0079,0.9799,116.200000000012
-1.3184,0.1099,0.9522,-0.0323,-0.0027,0.9934,116.299999999988
-0.238,-1.1536,-0.0458,-0.0174,-0.011,0.951,116.401000000013
-2.7192,0.4761,0.5127,-0.0104,-0.0095,1.0459,116.5
-3.4883,0.7324,0.0824,-0.0302,-0.0562,0.9528,116.599999999977
2.2065,-1.3001,0.1923,-0.0079,-0.0113,1.0324,116.700000000012
1.236,-0.2106,0.8057,-0.0183,0.0079,1.0065,116.799999999988
1.9227,-1.0254,0.0732,-0.0247,-0.0055,0.9998,116.899999999965
-0.0549,-0.3845,0.2106,0.0031,-0.0027,1.0007,117
-1.0804,0.7508,0.0275,-0.0092,-0.015,1.005,117.099999999977
0.6958,-1.0804,-0.2838,-0.0177,0.015,1.0062,117.200000000012
0.5951,-0.0458,0.2106,-0.0134,0.0043,1.0166,117.299999999988
0.1373,0.5585,-0.1282,-0.0092,-0.0101,1.0166,117.399999999965
0.3204,-0.1648,0.0458,0.0043,-0.004,0.9845,117.5
0.2564,0.1556,0.1282,-0.0082,-0.015,1.0047,117.600999999966
-0.3571,0.1923,-0.4852,-0.0104,-0.0162,1.0453,117.701000000001
0.3845,0.0458,0.0549,-0.0027,-0.0192,0.9821,117.799999999988
-0.0366,0.6226,-0.2564,-0.0116,-0.0281,0.997,117.899999999965
0.0366,-0.3845,-0.3204,0.0031,-0.0183,0.994,118.000999999989
-0.2197,0.5676,-0.1373,-0.015,-0.0101,1.0147,118.100999999966
0.3388,-0.293,-0.8057,-0.0104,-0.0217,0.9857,118.201000000001
-0.5951,-0.7416,-0.4578,0.0012,-0.0183,0.9958,118.299999999988
-0.5402,0.3937,-0.7324,-0.0085,-0.0269,1.0099,118.401000000013
0.6592,-1.2268,-0.7965,0.0018,-0.0119,0.9943,118.500999999989
0.3113,0.7965,-0.4028,0.0049,-0.0171,0.9928,118.600999999966
-0.0732,-0.2655,-0.8698,-0.0116,-0.0229,1.0114,118.700000000012
-0.2106,-1.1902,-0.4669,0.004,-0.0089,0.9821,118.799999999988
-0.2106,0.824,-0.4669,0,-0.0247,1.0111,118.901000000013
0.1373,-1.0712,-0.7233,-0.0058,-0.0177,0.998,119.000999999989
-1.0895,-0.8606,-0.3296,-0.0012,-0.0098,0.979,119.099999999977
1.5015,0.7691,-0.7599,-0.0043,-0.0177,0.9989,119.200000000012
0.0916,-1.1902,-0.4761,-0.0031,-0.0085,1.0096,119.299999999988
1.1811,1.0895,-0.3296,0.0018,-0.0211,1.0047,119.399999999965
0.2472,-0.7324,-0.7324,-0.007,-0.0134,1.0218,119.5
0.0275,-0.5585,-0.3479,0.0073,-0.018,0.9735,119.600999999966
-0.2289,0.824,-0.5676,-0.0079,-0.0134,1.0092,119.700000000012
-0.238,-0.8698,-0.5768,-0.0027,-0.0104,0.998,119.799999999988
-0.0824,0.4578,-0.1923,0.0116,-0.0266,0.9757,119.901000000013
-0.5127,-0.4303,-0.586,-0.0134,-0.032,1.0028,120.000999999989
-0.412,-1.1444,-0.3571,-0.0003,-0.0171,0.9909,120.099999999977
0.7965,1.4832,-0.412,0.0009,-0.015,1.0028,120.200000000012
0.0641,-0.6958,-0.4486,-0.0143,-0.0128,1.0147,120.299999999988
-0.4578,-0.3937,-0.3388,0.0037,-0.033,0.9848,120.399999999965
-0.2564,0.3388,-0.5219,-0.0067,-0.0143,1.0407,120.500999999989
-0.6592,-0.998,-0.3388,0.0009,-0.0192,0.9903,120.599999999977
1.0987,0.5585,-0.1648,0.0131,0.0119,0.972,120.700000000012
-0.0549,0.1282,-0.3937,-0.011,-0.0119,1.0257,120.799999999988
-0.5036,-0.5585,-0.2472,0.0064,-0.0027,0.9748,120.901000000013
0.3845,1.062,-0.2197,-0.0034,-0.0098,1.0117,121.000999999989
0.0641,-0.705,-0.1556,-0.0116,0.0018,1.0245,121.100999999966
-0.5768,0.6592,0.1556,0.0058,-0.025,0.9665,121.201000000001
0.7599,0.7508,0,-0.0189,-0.0089,1.001,121.299999999988
-0.1923,-1.3916,0.1923,-0.0015,-0.0049,1.0102,121.401000000013
0.238,1.1261,0.119,0.0009,-0.0046,0.9763,121.5
0.3296,0.0458,0.174,-0.0073,0.0061,1.0199,121.599999999977
-0.7691,-0.2289,0.2472,-0.0073,-0.0043,0.9854,121.701000000001
0.4852,0.6958,0.1465,-0.0085,-0.0027,1.0227,121.799999999988
-0.3937,-0.5219,0.4395,-0.0131,-0.0073,1.0331,121.901000000013
0.0275,0.6134,0.238,-0.007,-0.0272,0.9503,122.000999999989
0.7324,-0.1007,0.2106,-0.0217,-0.0125,1.0474,122.100999999966
-1.3184,-0.8789,0.3937,-0.0101,-0.0195,0.9705,122.200000000012
0.8789,1.1994,0.3754,0.0003,-0.0137,0.9677,122.299999999988
-0.5127,-0.6134,0.4761,-0.0192,-0.0177,1.0474,122.399999999965
-0.3113,0.1831,0.238,-0.0076,-0.0183,0.9665,122.5
0.2014,0.7324,0.2655,-0.0052,-0.0159,1.0184,122.600999999966
0.1923,-0.3021,0.4578,-0.0143,-0.014,1.0123,122.700000000012
0.3021,0.5768,0.4669,-0.0034,-0.0095,0.9864,122.799999999988
0.0824,-0.293,0.6775,-0.0217,-0.0101,1.0202,122.899999999965
-0.5493,-0.2289,0.5036,-0.0162,-0.0116,0.9937,123.000999999989
-0.2564,0.4761,0.3754,-0.0012,-0.0052,1.0221,123.100999999966
0.5585,-0.705,0.531,-0.0134,-0.0104,0.9995,123.200000000012
-0.1556,-0.238,0.3388,-0.011,-0.0067,0.9809,123.299999999988
1.4557,-0.119,0.3296,-0.0131,-0.0052,1.0269,123.399999999965
-0.3479,-0.7874,0.5219,-0.0015,-0.0067,1.0227,123.5
-0.2564,1.0987,0.3479,-0.0034,-0.0226,0.9565,123.600999999966
1.1444,-0.1282,0.6226,-0.0192,-0.0031,1.0437,123.700000000012
-0.5402,-0.1465,0.3296,-0.0165,-0.0061,0.9864,123.799999999988
-0.0183,0.2014,0.2838,-0.0006,-0.0195,0.9745,123.899999999965
-0.6958,-0.1373,0.6592,-0.0082,-0.0061,1.0178,124.000999999989
-1.1536,0.998,0.3021,-0.0098,-0.0195,0.9934,124.100999999966
0.8698,-0.412,0.4028,-0.0116,-0.0143,1.0108,124.201000000001
-0.0732,0.238,0.3113,-0.0143,-0.0153,1.0248,124.299999999988
0.0549,-0.3021,0.2564,-0.0046,-0.0302,0.9476,124.401000000013
1.4649,-0.2838,0.5951,-0.0131,-0.0104,1.0562,124.500999999989
-1.2818,-0.0641,0.3479,-0.0061,-0.0308,0.9766,124.600999999966
0.8881,0.1099,0.3479,-0.015,-0.0089,0.9821,124.701000000001
-0.2747,-0.5585,0.5585,-0.0052,-0.014,1.0004,124.799999999988
-1.2177,0.8423,0.238,-0.0104,-0.0232,1.0016,124.901000000013
0.7416,-0.3845,0.4761,-0.0089,-0.018,0.9998,125.000999999989
-0.7324,0.5768,0.412,-0.0137,-0.0137,1.016,125.099999999977
-0.7874,-0.0824,0.3021,-0.0131,-0.0272,0.9592,125.201000000001
1.3459,-0.4578,0.4761,-0.0073,-0.004,1.0062,125.299999999988
-1.1719,0.5127,0.2014,-0.0073,-0.0214,1.0163,125.401000000013
0.9796,-0.7691,0.1923,-0.0089,-0.0262,0.9449,125.500999999989
0.6775,0.9064,0.3845,-0.0043,-0.0046,1.0395,125.600999999966
-0.4303,0.1648,0.0641,-0.0165,-0.0266,0.9763,125.701000000001
1.7121,-0.7324,0.4028,-0.0122,-0.0153,0.9934,125.799999999988
-0.7965,0.824,0.3937,-0.0061,-0.0104,1.0205,125.901000000013
0.119,0.6684,0.2014,-0.0153,-0.0284,0.9711,126.000999999989
0.7874,-0.2289,0.4486,-0.0146,-0.0241,1.0569,126.100999999966
-1.1628,0.3754,-0.2472,-0.0079,-0.0369,0.9955,126.201000000001
0.3662,-0.7416,-0.5127,0.0012,-0.0391,0.95,126.299999999988
0.2289,0.9522,-0.65,-0.0134,-0.0217,1.0773,126.401000000013
-0.5402,0.6409,-1.3092,0.0034,-0.0217,0.9699,126.500999999989
1.4832,-0.3845,-1.3642,0.0107,-0.0143,0.9909,126.599999999977
-0.1831,0.7965,-1.1811,-0.0003,-0.011,1.0413,126.701000000001
-1.4649,-0.7874,-1.4466,0,-0.0339,0.9565,126.799999999988
1.0529,0.4761,-1.0895,0.0165,-0.0165,1.0038,126.901000000013
-1.7487,1.3001,-0.6684,-0.0073,-0.0159,1.0193,127
0.1923,-0.3479,-0.4212,-0.0293,-0.0244,0.9745,127.099999999977
0.9064,-0.238,0.1007,0.0024,-0.0064,1.001,127.200000000012
-1.4191,0.8789,0.2838,-0.0214,-0.0296,0.9983,127.299999999988
0.1099,-1.1261,0.1373,-0.0238,-0.029,1.0071,127.401000000013
-0.3021,-0.1923,0.3113,0.0009,-0.0104,1.0041,127.5
-0.3113,1.062,0.3021,-0.0192,-0.018,0.994,127.599999999977
0.531,-1.1628,-0.0092,-0.0156,-0.0256,0.9952,127.701000000001
-0.3937,0.6317,0.2197,-0.0034,-0.0192,1.034,127.799999999988
-0.7691,-0.1465,0.0275,-0.0171,-0.0403,0.9595,127.901000000013
1.5198,-0.5676,-0.0366,-0.0024,-0.007,1.0205,128.000999999989
-0.5219,0.174,0.2289,-0.0079,-0.0183,0.9946,128.100999999966
0.6592,-0.0458,0.0916,-0.0089,-0.0296,1.001,128.201000000001
0.8148,-0.3845,0.0549,0.0018,-0.0098,1.0065,128.299999999988
-1.4557,0.2838,0.3113,-0.0226,-0.0281,0.9851,128.401000000013
-0.0549,-1.236,-0.0916,-0.0162,-0.0272,0.9861,128.500999999989
-0.3113,-0.8148,0.0092,0.0156,-0.0079,0.9961,128.600999999966
-0.8423,1.1719,0.238,-0.0116,-0.0208,1.0077,128.700000000012
1.2909,-0.8881,-0.1556,-0.015,-0.0311,0.9931,128.799999999988
-0.3845,0.1465,0.1007,0.0107,-0.0116,0.9973,128.901000000013
-0.5219,0.2838,0.0641,-0.0125,-0.0308,0.9885,129.000999999989
0.705,-0.5768,-0.1282,-0.0128,-0.0146,1.0236,129.100999999966
0.0916,0.6134,0,0.0058,-0.0198,0.9995,129.201000000001
-0.1099,0.3937,0.1099,-0.0171,-0.0305,0.99,129.299999999988
1.7121,-0.4852,-0.1099,-0.015,0.0754,1.0263,129.399999999965
0.3204,0.2197,0.1373,0.0064,0.0613,0.9769,129.500999999989
0.7508,0.9339,-0.2472,-0.0183,0.0436,1.0117,129.600999999966
-0.2747,-1.2543,-0.412,-0.0052,0.0473,1.0343,129.701000000001
-0.5036,1.1719,-0.0916,-0.0003,0.0159,0.9778,129.799999999988
0.119,0.0092,-0.5402,-0.0027,0.0009,1.0236,129.901000000013
-0.531,-0.2197,-0.2106,0,0.0052,0.9861,130
-0.8881,-0.4852,-0.2655,-0.0113,-0.0201,0.9796,130.100999999966
0.2564,-0.0183,-0.4578,-0.0015,-0.0067,1.0205,130.201000000001
-0.2655,0,0.0366,-0.0009,0.0018,0.9799,130.299999999988
0.2747,0.1099,-0.4212,-0.015,-0.0311,1.0108,130.401000000013
0.4761,-0.7965,-0.3021,0.0055,-0.0037,1.0074,130.5
-0.0092,0.7874,0.0183,-0.0092,-0.0247,0.9851,130.600999999966
1.2268,-1.0437,-0.4395,-0.0107,-0.0104,1.0181,130.701000000001
-0.5676,-0.3479,0.0641,0.0162,-0.0159,0.9946,130.799999999988
0.3662,0.7233,-0.1465,-0.0128,-0.0339,0.9864,130.901000000013
1.3825,-0.7416,-0.3571,-0.0055,-0.0079,1.0239,131.000999999989
-0.9522,0.1099,-0.0732,0.0131,-0.022,0.9452,131.100999999966
0.5493,0.412,-0.412,-0.011,-0.0171,1.0175,131.201000000001
-0.7874,-0.8698,-0.2564,0.0018,-0.0031,1.0053,131.299999999988
0.1556,0.6409,0.2564,0.0101,-0.0195,0.9799,131.401000000013
0.5493,0.3479,-0.3845,-0.0159,-0.0073,1.0022,131.500999999989
-0.6684,0.3754,-0.0092,-0.0006,-0.0275,1.0056,131.600999999966
-0.2289,0.4761,-0.1556,-0.0098,-0.0339,1.037,131.701000000001
-0.7141,-1.3459,-0.3754,0.0073,-0.0128,0.9735,131.799999999988
-0.174,0.6775,0.2747,0.0015,-0.0153,0.9775,131.901000000013
0.3662,0.6409,-0.0275,-0.0165,-0.0189,1.0282,132.000999999989
-0.6867,-0.5402,0.0549,-0.0031,-0.0183,0.9967,132.100999999966
0.412,0.7416,0.4578,-0.0003,-0.0287,0.976,132.200000000012
0.8057,-0.1099,0.0183,-0.0259,-0.0204,1.0492,132.299999999988
-1.0071,-1.3733,0.2564,-0.0015,-0.029,0.9717,132.401000000013
1.941,0.6867,0.2197,-0.0021,-0.0604,1.0028,132.500999999989
0.0549,-1.1444,-0.119,-0.0198,-0.0501,1.0416,132.600999999966
-1.0437,0.1007,0.0549,0.0049,-0.0644,0.9461,132.701000000001
1.7396,1.0437,-0.0275,-0.007,-0.0418,1.0172,132.799999999988
-0.9796,-1.1902,-0.0275,-0.0055,-0.0394,1.0099,132.901000000013
-0.586,0.5585,0.119,0.0092,-0.0543,0.9464,133.000999999989
0.0641,0.824,-0.0641,-0.018,-0.036,1.0254,133.100999999966
-1.0254,-0.705,-0.1373,0,-0.0467,1.008,133.201000000001
-0.7965,0.2472,0.0275,-0.0009,-0.0595,0.9622,133.299999999988
0.2106,0.0916,-0.0732,-0.0159,-0.0482,1.0334,133.401000000013
-0.4578,-0.5768,-0.0549,-0.0024,-0.0415,1.0117,133.500999999989
0.2564,0.4486,0.1831,0.007,-0.0543,0.9738,133.600999999966
0.5768,0.586,-0.1007,-0.0201,-0.0501,1.0254,133.701000000001
-0.3204,-0.7874,0.0275,-0.0131,-0.0443,1.0233,133.799999999988
-0.119,0.3113,0.0092,0.0012,-0.0537,0.9659,133.901000000013
0.1648,0.2747,-0.1648,-0.011,-0.0455,1.026,134.000999999989
-0.0183,-0.2838,0,-0.0034,-0.0397,0.998,134.100999999966
-0.293,0.2564,0.0549,-0.004,-0.0461,0.99,134.201000000001
0.3388,0.4028,-0.1282,-0.0119,-0.0391,1.0276,134.299999999988
-0.3571,-0.412,0.0275,-0.0082,-0.0443,1.0108,134.401000000013
-0.3021,0.5676,0.0458,-0.0003,-0.0394,0.9897,134.500999999989
0.4028,1.2726,-0.0183,-0.0122,-0.0385,1.0117,134.600999999966
0.0732,-1.3459,-0.1007,-0.015,-0.0378,0.9977,134.701000000001
-0.7233,-0.0549,0.1007,0.0024,-0.0464,0.9711,134.799999999988
0.7508,0.5493,-0.0549,-0.0003,-0.0363,1.0022,134.901000000013
0.2655,-0.2747,0.0549,-0.0107,-0.0464,0.9915,135.000999999989
0.3113,-0.412,0.0824,-0.0085,-0.0443,1.0163,135.100999999966
-0.3204,0.293,-0.0458,-0.0037,-0.0485,0.958,135.201000000001
1.2726,-0.5493,-0.1099,-0.0064,-0.0366,1.0166,135.299999999988
-1.2818,-0.5127,0.1007,-0.0055,-0.0461,1.0221,135.399999999965
0.0366,1.1078,-0.1007,-0.0009,-0.0552,0.9848,135.500999999989
-0.238,-0.2197,-0.0458,-0.0134,-0.0418,0.983,135.600999999966
-0.0916,-0.8606,-0.0824,-0.0092,-0.0323,1.0056,135.701000000001
-0.5768,0.7141,0.0732,0.0061,-0.0549,0.9973,135.799999999988
0.5219,-0.3296,-0.3388,-0.0122,-0.0443,0.9781,135.901000000013
0.7141,-0.2106,0.2472,-0.0214,-0.0452,1.0034,136.000999999989
-0.238,0.1556,-0.1007,-0.0027,-0.0418,1.0108,136.099999999977
-0.5127,1.4832,-0.1556,0.0092,-0.051,0.9934,136.201000000001
0,0.293,-0.3021,-0.0229,-0.0287,0.9937,136.299999999988
0.4395,-0.8972,-0.1099,-0.0275,-0.0375,1.0251,136.401000000013
-0.7965,-0.6226,-0.2838,0.0095,-0.0403,1.008,136.500999999989
-0.0183,0.5951,-0.4303,0.0116,-0.0479,0.9717,136.600999999966
0.531,0.6226,0,-0.0122,-0.0366,0.9891,136.701000000001
-0.2014,-0.0916,-0.0275,-0.0192,-0.0323,1.0047,136.799999999988
-0.2106,0.5585,-0.3113,-0.0165,-0.0345,1.0102,136.901000000013
-0.1648,-0.2197,-0.0732,-0.0143,-0.0165,0.9827,137.000999999989
-0.1465,-0.6592,0.6592,-0.0003,-0.0214,1.0074,137.100999999966
-0.7416,0.7965,1.41,-0.0369,-0.0253,1.0279,137.201000000001
0.2472,0.8515,2.2614,-0.0235,-0.0229,1.0038,137.299999999988
1.5564,1.3001,3.6988,-0.0381,-0.0031,0.997,137.401000000013
0.0275,-0.0732,5.0264,-0.0571,-0.014,1.001,137.500999999989
0.3113,-0.2564,6.3448,-0.0586,0.0058,1.0144,137.600999999966
-1.2543,0.3571,7.8372,-0.0546,0.0137,0.9967,137.701000000001
0.2197,1.9135,8.6612,-0.0739,0.0125,1.0495,137.799999999988
-0.7233,-0.0275,9.238,-0.0845,0.0049,1.0089,137.901000000013
0.2106,-0.412,9.3936,-0.0851,-0.0201,0.9635,138.000999999989
-0.6592,0.1648,9.0274,-0.0723,0.0082,1.0266,138.100999999966
1.9318,0.0275,9.2105,-0.0864,-0.0021,0.9226,138.201000000001
1.4557,0.2014,9.6866,-0.0607,0.0134,1.0364,138.299999999988
-1.3367,0.6684,9.5859,-0.0897,-0.0034,1.0047,138.401000000013
0.2106,0.8606,9.9887,-0.0824,-0.0003,1.0181,138.500999999989
-0.6867,-0.3754,11.1881,-0.098,-0.0217,0.9735,138.600999999966
-0.2747,0.2564,11.8381,-0.1032,-0.0034,1.0092,138.701000000001
-1.3642,-0.4486,12.1586,-0.0952,-0.0061,1.0105,138.799999999988
0.0366,0.5036,13.0009,-0.1068,0.0256,0.9799,138.901000000013
0.3937,-1.0529,13.9988,-0.1328,0.0146,1.0001,139.000999999989
-0.5676,-1.6846,14.4566,-0.1315,0.0211,1.0089,139.100999999966
-0.5493,-1.8677,14.4658,-0.1025,0.0067,0.9912,139.201000000001
-0.6043,0.65,15.0609,-0.1019,-0.0064,1.0242,139.299999999988
-0.8515,0.7508,14.6947,-0.1163,-0.0015,0.9641,139.401000000013
-0.0092,-2.234,14.4108,-0.1434,-0.0153,1.016,139.500999999989
-0.1465,-4.1841,14.2277,-0.1093,-0.0015,1.0172,139.600999999966
1.2543,-1.8403,14.7862,-0.0742,0.0204,0.9842,139.701000000001
0.4852,0.3021,15.1158,-0.087,-0.0006,0.9836,139.799999999988
-1.0346,0.3388,15.363,-0.1151,-0.0266,1.0059,139.901000000013
-1.4283,-0.6226,14.5665,-0.1193,-0.0256,1.0596,140.000999999989
-0.4578,-0.7965,14.9876,-0.0998,0.0027,0.9522,140.100999999966
0.6134,0.0824,15.3996,-0.0949,0.0034,0.9851,140.201000000001
-1.0437,-0.174,14.4841,-0.1129,-0.0085,1.0016,140.299999999988
0.1923,-0.1648,14.4383,-0.0897,0.0189,1.0361,140.401000000013
-0.1556,0.0732,15.0884,-0.0986,-0.0018,0.9503,140.500999999989
0.1282,0.7416,15.2348,-0.1147,-0.0177,0.9986,140.600999999966
0.1831,-0.4578,14.6672,-0.1099,-0.0256,0.9989,140.701000000001
1.0163,0.7508,15.1341,-0.0855,-0.0119,1.0331,140.799999999988
0.119,2.7192,14.9785,-0.0934,0.0049,0.9873,140.901000000013
0.9522,1.1353,15.2348,-0.1331,0.0299,1.0099,141.000999999989
0.1282,-1.0804,15.1982,-0.1282,0.0336,1.0178,141.100999999966
0.1556,-0.5951,15.4637,-0.1041,0.0421,0.9854,141.201000000001
-0.2289,1.0071,16.1962,-0.1157,0.0296,0.9684,141.299999999988
-0.7782,0.4028,16.3244,-0.1502,0.0137,1.0358,141.401000000013
-2.2706,-1.5473,15.2989,-0.1404,0.0183,1.0202,141.500999999989
-0.2472,-0.6684,16.0863,-0.105,0.0284,0.9397,141.600999999966
-1.1811,-0.1465,15.894,-0.1395,0.0296,1.0294,141.701000000001
1.0529,-1.8128,15.2715,-0.134,0.018,1.0001,141.799999999988
2.8932,-2.1882,15.9673,-0.0986,0.0464,0.9943,141.901000000013
1.117,1.7396,16.5258,-0.1044,0.0302,0.9742,142.000999999989
0,-0.2838,15.8025,-0.1434,0.0259,1.0059,142.100999999966
0.7874,-1.6755,15.244,-0.1184,0.0369,1.044,142.201000000001
-0.2564,0.0732,14.9144,-0.09,0.0534,0.9992,142.300999999978
-1.7212,0.8881,14.8778,-0.1199,0.0464,0.943,142.401000000013
-2.2248,0.6043,14.0721,-0.1065,0.0217,0.9449,142.500999999989
-2.5452,2.9847,12.7812,-0.08,0.014,1.0215,142.600999999966
-0.586,0.9247,13.303,-0.1434,0.0296,1.0813,142.701000000001
0.7691,-2.6643,12.6438,-0.1086,0.0323,0.8603,142.799999999988
4.1108,-0.998,11.7557,-0.0446,0.0488,0.9259,142.901000000013
0.0916,8.414,12.2684,-0.101,0.0165,1.1347,143.000999999989
-2.0508,0.6226,10.1169,-0.1425,-0.0204,1.0154,143.100999999966
6.473,-2.5636,11.7191,-0.1157,0.0348,0.9763,143.201000000001
1.1811,-0.8423,11.0416,-0.0873,0.0388,1.015,143.300999999978
-1.1444,1.5381,9.8239,-0.0909,-0.0067,0.9522,143.401000000013
2.1516,-0.0549,9.9338,-0.0861,0.0204,1.0706,143.500999999989
-2.4445,0.9522,9.4943,-0.1068,0.0232,1.0166,143.600999999966
2.3255,-2.3804,8.5147,-0.0839,0.0256,0.9366,143.701000000001
-1.5839,-0.4852,7.5991,-0.0647,0.0128,1.0138,143.799999999988
-5.2461,0.1007,5.2461,-0.0482,-0.0052,1.0361,143.901000000013
0.531,-2.1699,4.5686,-0.0302,-0.0049,0.9546,144.000999999989
0.2472,0.1465,3.7904,-0.0549,-0.0156,0.9915,144.100999999966
1.5473,-0.1099,3.2411,-0.014,0.0137,0.929,144.201000000001
-0.2289,-0.1831,3.3509,-0.0278,0.0226,1.0089,144.299999999988
-1.1902,1.0895,2.9023,-0.0266,-0.0034,0.9857,144.401000000013
-0.9888,0.4944,3.4516,-0.0308,0.0143,1.0581,144.500999999989
-0.8515,0.4212,3.4791,-0.0519,0,0.9449,144.600999999966
1.2818,-0.4761,3.4974,-0.04,0.0095,0.9937,144.701000000001
0.998,2.0417,3.5981,-0.0223,0.0021,0.9836,144.799999999988
-1.0071,0.238,3.8453,-0.0656,0.0253,1.0575,144.901000000013
-0.1831,-0.238,4.6144,-0.0467,0.0101,0.9549,145.000999999989
0.4669,0.174,5.1454,-0.0549,0.0388,1.0248,145.100999999966
-0.3204,-0.2289,5.3743,-0.061,0.0208,0.9812,145.201000000001
0.6409,0.4303,5.3743,-0.0549,0.0131,0.9677,145.299999999988
0.2655,-0.5402,5.2919,-0.0687,0.0262,1.0273,145.401000000013
-1.062,-0.4669,5.2461,-0.051,0.0125,1.0031,145.500999999989
0.4212,-0.293,5.3194,-0.0537,0.0064,0.9919,145.600999999966
0.2472,0.6226,5.5116,-0.0601,0.0189,1.0306,145.701000000001
-0.6317,-1.0163,4.9623,-0.061,0.0076,0.9708,145.799999999988
2.2431,0.2014,5.3102,-0.0369,0.0153,0.9781,145.901000000013
-0.7782,0.4852,4.944,-0.0583,0.0067,1.0462,146.000999999989
-0.824,-0.7233,3.946,-0.0516,-0.0095,0.9928,146.100999999966
0.6684,-0.9888,3.058,-0.0244,0.0107,0.9742,146.201000000001
-0.4761,-0.2838,2.298,-0.0272,0.0027,1.0157,146.299999999988
0.6226,-0.4578,1.4008,-0.0165,-0.0015,0.9842,146.401000000013
0.3571,-0.8972,0.705,-0.0031,0,1.0025,146.500999999989
-1.117,0.3204,0.8057,-0.0085,-0.0006,0.9836,146.600999999966
-0.119,-0.0549,0.5585,-0.0159,0.0006,1.0031,146.701000000001
-0.3937,-0.1282,0.4669,0.0015,0.0098,1.0141,146.799999999988
0.2014,0.0549,0.705,-0.0278,0.007,1.0074,146.901000000013
0.4669,-1.474,0.2289,-0.0024,-0.004,0.9412,147.000999999989
0.6226,-0.8972,-1.0346,0.0128,-0.0067,1.0193,147.100999999966
0.0183,-0.4212,-2.3621,0.0168,0.0018,1.0089,147.201000000001
-0.1373,-1.7762,-3.9186,0.0369,-0.0171,0.9503,147.299999999988
-0.3204,-0.1099,-5.6398,0.0595,-0.0006,1.0077,147.401000000013
-0.9705,-0.8972,-6.1251,0.0418,-0.0018,1.0233,147.500999999989
-0.4761,-0.8332,-6.8209,0.0644,0.0021,0.9677,147.600999999966
0.2655,-0.7782,-7.2604,0.0803,0.0131,0.9702,147.701000000001
-0.1648,1.3092,-6.418,0.0751,-0.0018,0.9992,147.799999999988
0.3113,0.0732,-7.1322,0.0354,0.004,1.0642,147.901000000013
0.5585,-0.7965,-6.9948,0.065,0.0076,0.9806,148.000999999989
0.998,1.0804,-5.887,0.0577,0.0092,0.9391,148.100999999966
0.586,1.4924,-5.7222,0.0366,0.0201,1.0364,148.201000000001
-1.6663,0.1282,-4.4954,0.0394,0.0269,0.9995,148.299999999988
0.3296,1.1353,-2.4903,0.0092,0.0467,0.9848,148.401000000013
0.3204,0.4944,-1.355,-0.0034,0.0507,0.9964,148.500999999989
0.3296,0.7416,0.1373,0.0024,0.0607,0.983,148.600999999966
0.7874,1.062,1.2635,-0.0302,0.0604,0.997,148.701000000001
0.2838,0.0824,1.1261,-0.0293,0.0562,0.9919,148.799999999988
0.5402,0.0916,1.2726,-0.0128,0.061,1.016,148.901000000013
-0.5127,0.6226,0.5585,-0.0238,0.0372,0.9821,149.000999999989
-0.3937,-0.6867,0.0183,-0.0128,0.0647,1.0089,149.100999999966
0.1556,0.2655,0.1556,-0.0034,0.0525,1.0056,149.201000000001
0.6409,0.8698,0,-0.0101,0.0531,1.0001,149.299999999988
-0.9705,-0.0549,0.0183,-0.0137,0.029,0.9812,149.401000000013
0.4212,0.0549,0.1556,-0.007,0.0262,1.0184,149.500999999989
-1.6938,0.4212,0.119,-0.0153,0.0192,1.0251,149.600999999966
-0.4852,-0.3296,0.7141,-0.0204,-0.0031,0.9644,149.701000000001
0.998,0.4578,1.4649,-0.0287,0.0229,1.0129,149.799999999988
-0.5585,0.7141,2.1241,-0.0232,0.0076,1.0309,149.901000000013
1.7029,-0.2838,2.7284,-0.0482,0.0107,0.9964,150.000999999989
-0.5036,-0.0916,2.6643,-0.0504,0.0308,1.0517,150.100999999966
0.2472,-0.1923,2.7741,-0.0363,0.0272,0.9659,150.201000000001
0.65,0.174,3.2685,-0.0385,0.015,0.9952,150.300999999978
0.3754,-0.1831,2.4995,-0.0455,0.0125,1.019,150.401000000013
-0.4486,-0.4761,2.9572,-0.0348,0.0128,1.0053,150.500999999989
0.238,0.8057,2.9664,-0.043,0.0095,0.9467,150.600999999966
-0.3754,-0.2289,2.8382,-0.0314,0.0214,1.0474,150.701000000001
-0.3479,0.2655,2.9847,-0.0433,0.0009,0.9775,150.799999999988
-0.4028,0.0092,2.6643,-0.0449,0.0146,0.9995,150.901000000013
-1.0437,-0.8881,2.8108,-0.0351,0.0012,0.9876,151.000999999989
0.1923,0.1831,2.6002,-0.047,0.0226,1.0233,151.100999999966
-1.7396,-0.531,2.4445,-0.0204,0.0052,0.9589,151.201000000001
-0.3021,0.5951,2.8382,-0.0394,0.0089,0.9601,151.300999999978
-0.2655,0.6958,2.1424,-0.0424,0.0107,1.0224,151.401000000013
-1.1719,-1.822,2.3713,-0.0287,0.0061,0.9787,151.500999999989
1.062,0.4669,2.6185,-0.0397,0.0266,0.9998,151.600999999966
-0.1556,-1.062,2.5361,-0.0269,0.0092,1.0092,151.701000000001
-0.1373,0.4395,2.8016,-0.0317,0.0092,0.9659,151.800999999978
0.705,0.7416,2.2065,-0.0369,0.0089,1.0233,151.901000000013
0.2472,-1.6663,1.4283,-0.0415,0.0024,0.9961,152.000999999989
0.4303,-0.9339,1.3184,-0.0137,0.0098,1.0279,152.100999999966
-0.7233,-0.3937,0.5768,-0.0034,-0.0018,1.0007,152.201000000001
0.5768,-0.2564,0.6684,0,0.0055,0.9644,152.300999999978
-0.0275,-0.0549,-0.174,-0.0159,-0.0009,0.997,152.401000000013
-1.1994,-1.41,-0.4303,-0.0012,0.0043,1.041,152.500999999989
1.1078,-0.3937,-0.4852,0.0009,0.0018,0.9818,152.600999999966
0.6958,-1.0712,-0.7324,0.0208,0.0116,1.0089,152.701000000001
-0.7416,-0.3204,-1.0712,0.0232,-0.0171,0.9674,152.799999999988
1.8403,-0.6958,-1.7304,0.015,0.0098,1.0175,152.901000000013
-2.6826,-1.3825,-2.5452,0.0226,-0.0104,1.0233,153.000999999989
0.6867,-0.3937,-3.2411,0.0424,-0.0027,0.9308,153.100999999966
0.3021,-0.0458,-3.6805,0.0317,0.0119,1.0514,153.201000000001
-2.8382,-0.0275,-4.1108,0.0546,-0.0171,0.8753,153.300999999978
3.0396,0.7965,-4.0651,0.0421,0.0195,1.0508,153.401000000013
-0.998,-2.0142,-3.9369,0.0397,0.0052,1.0508,153.500999999989
3.7263,1.9593,-3.3692,0.0568,0.0003,0.9143,153.600999999966
0.6134,1.4008,-3.7538,0.0336,0.0073,1.0483,153.701000000001
-1.9135,0.6684,-4.1932,0.011,-0.0153,1.073,153.799999999988
-0.1831,-1.7762,-4.2482,0.0519,0.0104,0.9439,153.901000000013
0.2655,-0.4486,-3.7355,0.0485,0.0208,1.0111,154.000999999989
-1.062,1.2452,-3.6897,0.0513,-0.0021,0.9632,154.100999999966
0.174,0.2564,-3.6897,0.0311,0.0085,1.0282,154.201000000001
-0.65,-0.174,-3.9094,0.0378,0.007,1.0099,154.300999999978
-0.4303,0.2564,-3.9186,0.0467,-0.0049,0.983,154.401000000013
-0.4852,0.1923,-3.5157,0.0339,0,1.0065,154.500999999989
-0.1373,0.0092,-3.2411,0.0357,0.0269,0.9842,154.600999999966
0.4028,1.7304,-2.1058,0.0177,0.0027,0.9922,154.701000000001
-0.3204,0.1007,-1.6846,0.0095,0.0095,1.0346,154.799999999988
0.2289,0.7782,-0.6684,-0.0006,0.0082,1.0022,154.901000000013
-0.2747,-0.0458,0.0275,0.0067,-0.0031,0.9296,155.000999999989
0.174,0.7233,0.293,-0.011,0.0146,1.0694,155.100999999966
-0.0092,0.6409,0.3388,-0.0082,0.004,0.9778,155.201000000001
-0.5768,0.0916,0.5768,-0.0085,-0.0095,0.9763,155.300999999978
-0.0824,0.7508,0.4669,-0.0092,-0.0171,1.0028,155.401000000013
-0.7141,0.6958,0.6226,-0.007,-0.0101,1.0489,155.500999999989
-0.293,1.1261,0.4028,-0.0186,-0.0189,0.9742,155.600999999966
1.2635,0.0183,0.6684,-0.0119,-0.0015,0.997,155.701000000001
-1.3092,0.4212,0.943,-0.0183,-0.0159,1.0398,155.800999999978
0.6317,0.7416,1.4008,-0.0266,-0.0043,0.947,155.901000000013
2.2431,0.119,2.2065,-0.0305,0.0024,1.0465,156.000999999989
-0.412,0.4852,1.8403,-0.0375,-0.0256,0.9934,156.100999999966
1.7487,-1.1719,2.0417,-0.0299,0.0024,0.9705,156.201000000001
-0.5951,0.174,2.0966,-0.0305,-0.0085,1.0303,156.299999999988
-0.2747,0.4395,1.8403,-0.0369,0.0003,0.997,156.401000000013
-0.3571,-0.4944,2.2065,-0.0323,-0.014,0.9864,156.500999999989
-1.8128,0.6684,1.6755,-0.0299,-0.0037,1.0041,156.600999999966
-1.3184,-0.4395,1.8769,-0.0266,0.0076,0.9748,156.701000000001
-0.7324,-0.3937,2.0325,-0.0256,-0.0095,1.0092,156.800999999978
-0.3388,0.412,1.886,-0.0269,-0.0079,0.9894,156.901000000013
1.0437,1.1444,2.1424,-0.0262,-0.0015,0.9812,157.000999999989
0.7874,0.4669,1.9227,-0.0391,-0.004,1.0071,157.100999999966
0.3113,-0.2747,1.8036,-0.047,-0.0073,0.9961,157.201000000001
0.9796,-0.6775,1.8769,-0.0137,0.0046,0.9973,157.300999999978
-0.9888,1.6205,1.7762,-0.0272,0.0021,1.0123,157.401000000013
-0.0092,-0.4395,1.5473,-0.0482,-0.0043,0.9738,157.500999999989
-0.2289,-0.6226,1.1353,-0.0192,-0.0034,1.0062,157.600999999966
-0.2472,0.5219,0.7599,-0.0171,0.007,0.9745,157.701000000001
1.236,-0.1923,0.4761,-0.0067,-0.0009,1.0031,157.800999999978
-1.1902,0.2472,-0.3845,-0.025,-0.0003,1.0541,157.901000000013
0.4395,0.9064,-0.119,-0.0006,0.0003,0.9272,158.000999999989
0.6958,0.4578,-0.3204,-0.0012,0.0043,1.0254,158.100999999966
-1.8677,0.9247,-0.6226,-0.0256,0.0037,1.0105,158.201000000001
-0.293,-0.8148,-0.3571,-0.0195,-0.0006,0.9729,158.300999999978
1.2177,0.7233,-0.1648,-0.0085,-0.0073,1.0193,158.401000000013
1.0529,-0.3571,-0.1465,-0.0259,0.0232,1.0279,158.500999999989
-1.6114,0.9247,-0.8148,-0.0015,-0.0229,0.9116,158.600999999966
-3.3418,2.1332,-1.3642,-0.022,-0.0372,1.0358,158.701000000001
0.1465,-3.7446,0.0916,-0.0446,-0.0085,1.1206,158.799999999988
0.7691,-4.2299,0.0916,0.0165,0.0006,0.8429,158.901000000013
4.5137,9.064,1.2085,0.0143,-0.0046,1.0297,159.000999999989
-6.0244,0.8698,-0.705,-0.0995,-0.007,1.2458,159.100999999966
-5.7314,-9.6042,-1.8677,-0.0064,-0.0378,0.8582,159.201000000001
9.6591,-0.4028,1.5198,0.0394,0.0601,0.9897,159.300999999978
-2.0783,2.7833,0.7691,-0.0082,0.0119,0.9769,159.401000000013
-2.9298,0.1465,-0.1556,-0.0403,-0.0403,1.0022,159.500999999989
-0.3021,-3.3876,-0.0458,-0.0247,0.0003,1.0352,159.600999999966
2.765,0.7416,0.4761,0.0137,0,1.0147,159.701000000001
0.8881,-0.2838,0.5768,-0.0385,0.0067,0.9757,159.800999999978
-0.9613,-1.5381,-0.2747,-0.0156,0.014,0.9742,159.901000000013
-1.7121,-0.293,-0.4852,0.0146,0.0186,1.0459,160.000999999989
-1.9776,-0.6592,-0.5219,0.0003,0.0153,0.9449,160.100999999966
2.4445,-0.2197,-0.5036,0.011,0.0076,1.0117,160.201000000001
-0.9796,0.7324,-0.3204,-0.0134,0.0101,1.0071,160.300999999978
0.2747,-0.4212,-0.7874,-0.0037,-0.004,0.9632,160.401000000013
0.1831,0.8148,-0.5676,0.0211,0.0211,1.0163,160.500999999989
0.0092,0.9796,-0.6134,-0.0253,0.011,1.0068,160.600999999966
1.0254,-0.6592,-0.7416,-0.0107,-0.0018,0.9906,160.701000000001
1.5564,1.6755,0.0641,0.0006,0.0116,1.0025,160.800999999978
0.3479,-0.0916,-0.1099,-0.0165,-0.0052,1.0111,160.901000000013
0.5036,0.5219,-0.2838,0.0009,-0.0006,1.0138,161.000999999989
-0.0916,1.1902,0,-0.0208,0.0156,1.0218,161.100999999966
-0.2289,-0.6409,-0.1648,-0.0238,-0.0113,0.9619,161.201000000001
0.3845,-0.7324,0.0732,0.0006,0.0253,1.0019,161.300999999978
-0.9064,0.7233,0.4303,-0.0217,0.0137,1.0389,161.401000000013
1.2818,-0.5036,0.119,-0.0186,0.0018,0.9796,161.500999999989
1.1719,0.6775,0.5219,-0.0098,0.0177,1.0141,161.600999999966
-0.238,-0.4669,0.0458,-0.0204,-0.0095,1.0047,161.701000000001
-0.2197,-0.1648,-0.5585,0.0003,-0.0082,0.99,161.800999999978
-1.941,-1.4191,-0.5951,0,-0.0076,0.9604,161.901000000013
-1.1811,-0.7691,-1.2909,-0.0015,-0.0204,0.9897,162.000999999989
-0.6043,0.9064,-2.0142,0.0171,-0.0217,0.9864,162.100999999966
0.3479,0.0458,-1.7212,-0.0089,-0.0214,0.9915,162.201000000001
0.2655,-0.998,-2.3713,0.0143,-0.014,1.0038,162.300999999978
-0.6409,-1.0529,-2.2065,0.0348,-0.0128,0.9345,162.401000000013
-0.4486,1.0163,-1.9959,-0.0064,-0.0269,1.0169,162.500999999989
-0.3388,0.0824,-2.7924,0.0137,-0.0098,0.9919,162.600999999966
1.3092,-0.4761,-2.2065,0.0024,-0.0034,0.9925,162.701000000001
0.9522,0.0458,-2.6368,0.0015,-0.0198,1.0092,162.800999999978
-0.9064,-0.1556,-2.5727,0.0305,-0.0189,1.015,162.901000000013
-1.1353,1.1628,-2.1332,0.007,-0.0211,0.9986,163.000999999989
-0.174,-0.5127,-2.8565,0.0021,0.0034,1.0208,163.100999999966
0.5036,-0.6317,-2.4171,0.0165,0.0003,0.9607,163.201000000001
0.5585,0.4303,-1.8586,0.0104,-0.0153,0.9998,163.300999999978
0.2014,0.2289,-1.6846,0.0107,-0.0076,1.0053,163.401000000013
0.1465,-0.3937,-0.8606,-0.0024,0.0055,0.9674,163.500999999989
0.1465,-0.238,-0.5402,-0.0165,0.0034,0.9937,163.600999999966
-0.4669,-0.6134,-0.4212,-0.014,-0.0015,0.9952,163.701000000001
-0.4578,0.5036,-0.1373,-0.0052,-0.0131,0.983,163.800999999978
1.0712,0.6592,0.0458,-0.0128,0.0119,1.03,163.901000000013
-0.3845,-0.1465,0.0183,-0.0281,0.0024,1.0129,164.000999999989
0.9888,-0.8698,0.3021,-0.0009,-0.0128,0.9336,164.100999999966
0.8148,0.6134,0.4944,-0.0195,-0.0018,1.0978,164.201000000001
-1.3092,0.9796,0.7782,-0.0235,-0.0021,0.9973,164.300999999978
0.8789,0.7782,1.2268,-0.0204,0.0021,0.9729,164.401000000013
0.119,0.943,0.9613,-0.0348,0.0024,1.0501,164.500999999989
-0.4761,-0.7965,1.1628,-0.0266,0.0052,0.9827,164.600999999966
-0.0183,0.1373,1.9684,-0.0345,0.0113,0.9879,164.701000000001
-0.2014,-0.7691,2.3988,-0.0406,0.0095,0.9919,164.800999999978
0.3296,1.4374,3.2685,-0.0302,-0.0092,0.9934,164.901000000013
0.7508,3.3601,4.8067,-0.0568,0.0165,1.0233,165.000999999989
0,-0.5676,5.1363,-0.112,0.0034,0.997,165.100999999966
-0.8423,-3.5432,4.9623,-0.0717,0.018,0.9735,165.201000000001
-1.5839,1.2909,5.2644,-0.0305,0.0177,1.0895,165.300999999978
-0.3388,2.3988,5.7772,-0.0665,0.0137,0.9238,165.401000000013
3.4333,-1.2635,5.5483,-0.0882,0.004,0.9461,165.500999999989
-0.7782,-1.3459,4.5045,-0.069,0.015,1.0675,165.600999999966
-1.4008,-0.0641,4.4038,-0.0397,0.0104,1.0431,165.701000000001
1.8494,0.3662,4.358,-0.0494,-0.0516,0.8988,165.800999999978
0.1556,-1.0895,2.353,-0.0412,-0.0049,1.0886,165.901000000013
-2.9572,-0.9796,0.824,-0.0104,-0.032,0.951,166.000999999989
0.6684,0.5585,0.3113,-0.0006,-0.0174,0.9973,166.100999999966
0.119,-0.1648,-0.824,-0.0098,-0.0076,1.048,166.201000000001
-1.1353,-0.5676,-0.9522,-0.0012,-0.0159,0.9644,166.300999999978
-0.3937,1.4008,-0.7508,0.0003,-0.0278,1.0062,166.401000000013
-2.2248,-0.0183,-0.8698,-0.0153,-0.0592,1.0334,166.500999999989
0.1648,-0.2655,-0.5219,-0.0165,-0.0491,0.9583,166.600999999966
0.1648,1.0895,-0.412,-0.0089,-0.04,1.034,166.701000000001
-0.7965,-0.1099,-0.6409,-0.0235,-0.0705,0.9897,166.799999999988
0.3845,-1.7212,-0.4395,-0.0052,-0.0641,0.9799,166.901000000013
0.3845,1.3916,-0.6043,-0.0031,-0.0568,1.0428,167.000999999989
0.0275,-0.4852,-0.4852,-0.0168,-0.0348,0.9806,167.100999999966
0.586,-0.6317,-0.4212,-0.0122,-0.0177,0.9796,167.201000000001
0.7691,-0.0275,-0.531,-0.0208,-0.0269,1.0367,167.300999999978
-1.0712,-0.9064,-0.0458,0.0064,-0.0311,0.9742,167.401000000013
-0.0183,-1.1902,-0.3388,-0.0095,-0.0272,0.9531,167.500999999989
0.6867,0.7965,-0.1648,0.0009,0.0034,0.9958,167.600999999966
-0.7416,-0.2655,-0.5676,-0.018,-0.011,1.0401,167.701000000001
-0.0458,-0.9796,-0.5402,-0.0146,-0.0125,0.9796,167.800999999978
2.4995,-0.1099,-0.3479,-0.004,0.0024,0.9522,167.901000000013
-0.4028,-0.1831,-0.3479,-0.0125,0.0058,1.0343,168.000999999989
-1.2635,-1.0712,-0.3937,-0.0082,0.0046,0.9915,168.100999999966
0.6226,0.2655,-0.2747,0.0021,0.0162,0.9925,168.201000000001
0.7141,0.8057,-0.4028,-0.0113,0.0314,1.0498,168.300999999978
-0.7691,-0.6317,-0.4028,-0.0113,0.0314,0.925,168.401000000013
1.9959,-0.3296,-0.3204,-0.0113,0.0861,1.019,168.500999999989
0.1099,0.2747,-0.5402,-0.0006,0.0638,1.0242,168.600999999966
-0.7233,-0.3571,-0.2289,-0.0055,0.0497,0.9793,168.701000000001
0.4212,1.1811,-0.412,-0.0043,0.0409,0.9824,168.800999999978
0.119,-0.1007,-0.5676,-0.0012,0.0153,1.0309,168.901000000013
-0.8698,-0.8698,-0.3296,-0.0085,0.0009,1.0004,169.000999999989
0.2197,0.3662,-0.5036,-0.0064,-0.0128,0.9876,169.100999999966
0.4028,0.8423,-0.4303,0.0061,-0.0214,0.9989,169.201000000001
-1.355,0.6958,-0.5585,-0.0128,-0.0177,1.0382,169.300999999978
0.4669,-0.1373,-0.7233,-0.018,-0.014,1.0184,169.401000000013
1.1536,-1.2543,-0.2838,-0.007,-0.0174,0.9537,169.500999999989
0.0458,-0.8057,-0.4944,0.0052,-0.0079,1.0022,169.600999999966
0.8423,1.7853,-0.3296,0.0018,0,1.0215,169.701000000001
0.5493,0.531,-0.3296,-0.0208,-0.0101,0.9861,169.800999999978
1.6663,-1.1536,-0.3021,-0.0226,0.033,1.0218,169.901000000013
0.1648,0.4303,-0.1282,-0.0037,0.0598,0.9806,170.000999999989
-1.062,-0.2197,-0.1282,-0.0085,0.0687,0.9702,170.100999999966
-3.6164,-0.5951,0.0366,-0.0214,0.014,1.0181,170.201000000001
-3.3235,-0.1007,-0.2289,-0.0089,0.0235,0.9742,170.300999999978
0.5127,0.4669,0.7965,-0.0107,0.051,1.0025,170.401000000013
0.7416,-0.2106,1.2177,-0.0409,0.0287,0.9626,170.500999999989
4.3214,-2.0875,0.6134,-0.014,0.0226,0.961,170.600999999966
-0.2472,0.9796,0.4578,0.0119,0.0525,1.0724,170.701000000001
-2.6276,1.4466,0.2655,-0.015,-0.0049,0.9754,170.800999999978
-1.0712,-0.5585,0.3113,-0.033,0.0406,1.016,170.901000000013
-2.8748,-3.9186,0.586,-0.0192,0.0433,1.0221,171.000999999989
-3.7629,1.2268,1.0987,0.0314,0.0134,0.8649,171.100999999966
-2.765,3.6348,0.6867,-0.0085,0.0501,1.0575,171.201000000001
0.8332,1.5656,0.5402,-0.0546,-0.0165,0.9674,171.300999999978
1.3367,-2.8199,0.0732,-0.0449,-0.0262,1.0031,171.401000000013
2.8657,-0.2655,0.2655,0.0351,-0.0098,0.9378,171.500999999989
3.4333,1.1719,0.8332,-0.0052,-0.0113,1.0736,171.600999999966
0.1923,0.586,0.9247,-0.0345,-0.0116,1.0157,171.701000000001
2.7558,0.4028,0.8972,-0.0174,-0.0156,0.9601,171.800999999978
0.8423,1.7029,1.4832,-0.0089,-0.0067,1.0382,171.901000000013
-0.1282,0.0641,0.8423,-0.0476,-0.0281,1.062,172.000999999989
-0.7324,-2.3255,0.531,-0.0412,-0.0327,0.9363,172.100999999966
0.0458,-1.6572,0.6592,0.0064,-0.0095,1.0242,172.201000000001
-2.0142,0.9888,-0.1556,-0.0046,-0.0217,1.0248,172.300999999978
-0.5402,-1.0895,-0.8606,-0.0128,-0.0272,0.9558,172.401000000013
-0.1282,-1.2085,-1.0804,0.014,-0.0076,1.0135,172.500999999989
-0.7599,0.7233,-2.4171,0.0226,-0.0327,1.0205,172.600999999966
-0.0183,-0.412,-2.6276,0.0058,-0.0217,0.9857,172.701000000001
0.9339,0.2289,-2.9298,0.0272,-0.0174,1.0291,172.800999999978
0.7324,0.1099,-3.4516,0.0189,-0.0201,0.9546,172.901000000013
0.9705,0.5219,-3.0396,0.0159,-0.0024,1.0727,173.000999999989
0.2747,0.0732,-3.2868,0.0177,-0.0024,0.9973,173.100999999966
0.6958,0.0092,-3.2228,0.0076,0.014,0.9946,173.201000000001
-0.0366,-1.236,-3.2228,0.0104,0.0119,0.9915,173.300999999978
0.1648,0.0824,-3.0946,0.04,0,1.0138,173.401000000013
-0.9705,1.4374,-2.9939,0.0098,-0.0046,0.9873,173.500999999989
-0.7324,-0.1465,-2.5636,0.0009,-0.0089,1.0068,173.600999999966
-0.1373,0.1556,-1.7853,0.0125,0.0031,1.0114,173.701000000001
-0.4852,0.8515,-0.8972,-0.0064,-0.0107,1.0108,173.800999999978
0.3937,-0.2014,0,-0.0256,0.0018,0.9915,173.901000000013
1.1536,0.6867,0.6775,-0.0037,0.0134,0.9861,174.000999999989
-0.9247,1.4283,1.5473,-0.04,-0.0064,1.0254,174.100999999966
-0.7874,-0.9247,2.8474,-0.0501,0.0046,1.0407,174.201000000001
-0.2106,-0.4028,4.2482,-0.047,0.0085,0.9787,174.300999999978
-0.0916,1.2085,5.53,-0.0342,0.0146,0.9537,174.401000000013
-0.4944,1.886,6.9674,-0.0833,0.0009,1.0062,174.500999999989
0.2564,0.8515,7.7273,-0.1071,0.0201,1.0099,174.600999999966
-0.6958,-2.4812,8.2125,-0.0958,0.0018,0.9949,174.701000000001
0.0641,-0.119,8.5971,-0.0641,0.0116,0.979,174.800999999978
0.9613,1.7029,8.4964,-0.0812,0.0137,1.0309,174.901000000013
-2.0325,-0.7874,7.7456,-0.09,-0.004,0.9748,175.000999999989
1.062,-2.1241,5.942,-0.072,0.0131,0.9949,175.100999999966
-0.4028,-1.0071,4.1292,-0.0223,0.0287,1.019,175.201000000001
-0.9522,0.0824,1.1261,-0.0162,-0.0082,0.9851,175.300999999978
-0.2106,-2.0234,-1.6938,0.011,-0.018,1.001,175.401000000013
0.4761,-0.4303,-3.6988,0.0443,0.0003,1.0224,175.500999999989
0.7233,0.2838,-5.3743,0.0366,0.0012,0.9998,175.600999999966
0.4761,-0.2564,-5.4842,0.0513,-0.0031,0.9726,175.701000000001
1.8128,1.2635,-5.2828,0.0525,0.0381,1.0199,175.800999999978
-0.0092,0.3021,-5.6032,0.0183,0.0146,1.0498,175.901000000013
-0.3204,-0.8423,-5.594,0.0406,0.0296,1.0047,176.000999999989
0.9247,0.7874,-5.4018,0.0482,0.0354,0.9952,176.100999999966
0.4028,0.7233,-5.4567,0.0305,0.0159,0.9955,176.201000000001
-1.0163,-0.2747,-5.3652,0.0424,-0.0064,0.9928,176.300999999978
0.3937,1.3642,-4.651,0.0357,-0.0027,0.9894,176.401000000013
-0.0092,0.705,-3.2502,0.0012,-0.0037,1.0636,176.500999999989
0.0641,0.6867,-1.8311,0.0006,-0.0134,0.9101,176.600999999966
1.7762,0.824,-0.7782,-0.0146,0.0366,1.0303,176.701000000001
-2.3164,-1.3367,-0.4944,-0.0107,0.0171,1.0318,176.800999999978
0.8057,0.0916,-0.3479,-0.0067,0.0272,0.9409,176.901000000013
0.2564,0.5402,-0.1465,-0.0168,0.0238,1.0178,177.000999999989
-1.6663,-0.7324,-0.4578,-0.0131,-0.0046,1.0065,177.100999999966
0.8057,0.3113,-0.5219,-0.0101,0.0156,0.9958,177.201000000001
1.5839,-0.5036,0.2289,-0.011,0.0284,0.9919,177.300999999978
1.3001,-0.2838,-0.1556,-0.0095,0.0363,1.0068,177.401000000013
0.1831,-0.0732,-0.2197,-0.0134,0.0427,0.9928,177.500999999989
-1.4466,0.2472,-0.0732,-0.0168,0.025,0.9928,177.600999999966
-0.293,-0.5676,-0.4028,-0.0018,0.0333,0.9949,177.701000000001
-0.7508,-0.0641,-0.1007,-0.0061,-0.0046,0.9662,177.800999999978
-0.5951,-0.0092,-0.0732,-0.0214,-0.0186,0.9983,177.901000000013
-0.2838,0.6043,0,-0.0052,-0.0104,1.0236,178.000999999989
-0.7599,0.6867,0.9339,-0.0229,-0.0128,0.9699,178.100999999966
-0.4486,-0.705,1.3276,-0.0403,-0.0174,1.0215,178.201000000001
0.3845,-0.5402,1.4374,-0.0229,-0.007,1.0031,178.300999999978
0.5402,0.8972,1.886,-0.0098,-0.0095,0.968,178.401000000013
0.824,0.65,1.355,-0.033,-0.0238,1.0138,178.500999999989
0.238,-1.062,0.9247,-0.0333,0.0058,1.0034,178.600999999966
-0.5219,-0.6775,0.9522,-0.0082,0.0113,0.9738,178.701000000001
0.2106,0.0275,0.3479,-0.011,0.0238,1.0242,178.800999999978
-0.6958,0.1465,0.6775,-0.0128,0.0388,0.9937,178.901000000013
-0.1465,0.2289,0.7233,-0.0336,0.0095,0.99,179.000999999989
0.0549,-1.062,0.3296,-0.0143,-0.0058,0.998,179.100999999966
0.1923,0.3845,0.5493,-0.0027,-0.0058,1.019,179.201000000001
0.5036,0.5127,0.4212,-0.0266,-0.0272,1.0208,179.300999999978
-0.1007,-0.7233,0.2472,-0.018,-0.0107,1.0248,179.401000000013
0.7965,-0.4578,0.5768,-0.0104,-0.0037,0.9632,179.500999999989
0.9247,0.5402,0.5127,-0.0162,0.0012,1.0257,179.600999999966
-0.6592,-0.6867,0.3479,-0.0128,-0.0009,1.0062,179.701000000001
-0.5219,-0.4028,0.5768,-0.0113,-0.0031,0.9622,179.800999999978
0.3021,-0.1007,0.3937,-0.0116,0.0061,1.0105,179.901000000013
-1.4283,0.5219,0.3845,-0.0055,0,0.9937,180.000999999989
0.5951,-0.4852,0.4944,-0.0171,-0.0031,0.9522,180.100999999966
0.5219,0.1282,0.412,-0.0137,0.0143,1.016,180.201000000001
-1.0346,-0.0732,0.4669,-0.0146,-0.0027,0.9964,180.300999999978
1.1994,0.2014,0.824,0.0012,-0.0049,0.9729,180.401000000013
-0.998,0.8057,0.2014,-0.0278,0.0183,1.0981,180.500999999989
-1.2726,-0.9522,0.1556,-0.0137,-0.0153,0.9391,180.600999999966
1.1994,-0.2838,-0.1831,-0.007,-0.0006,0.9619,180.701000000001
-1.1811,-1.5107,-0.8515,0.014,0.0092,1.0569,180.800999999978
-1.0071,0.9156,-0.7782,-0.0006,-0.0284,0.9098,180.901000000013
1.5748,0.6775,-0.7965,0.0189,0.011,0.9919,181.000999999989
-0.1831,0.65,-1.0346,-0.0128,-0.0009,1.0309,181.100999999966
-1.1628,-1.4374,-1.0346,-0.0125,0,0.9857,181.201000000001
2.4354,0.174,-0.8515,0.0143,0.0146,0.9726,181.300999999978
-0.6409,0.2472,-0.9796,0.0076,0.0241,1.0434,181.401000000013
-1.0437,0.0366,-0.998,-0.011,0.0226,0.9973,181.500999999989
1.6663,-0.412,-1.117,0.0095,0.014,0.9787,181.600999999966
-1.0071,0.0732,-1.0437,0.0052,0.0165,1.0392,181.701000000001
-1.1078,0.2197,-1.0071,0.0061,-0.0076,0.9796,181.800999999978
0.0824,0.174,-1.1078,-0.0119,-0.0146,0.9742,181.901000000013
-1.1811,-0.4669,-1.1628,0.0021,0.007,1.0825,182.000999999989
-0.0366,-0.3571,-1.0163,0,-0.0201,0.9189,182.100999999966
2.0142,0.6592,-0.824,0.0092,0.0162,1.0105,182.201000000001
0.1373,-0.8332,-1.0529,-0.0122,0.0034,1.005,182.300999999978
0.7599,0.0641,-0.8698,0.0128,-0.015,1.0092,182.401000000013
0.4578,0.5219,-0.9339,0.0079,0.0079,1.0144,182.500999999989
-0.7416,-0.6134,-0.7324,-0.015,-0.0012,0.9757,182.600999999966
0.8423,0.1007,-1.0346,0.0015,-0.0034,0.99,182.701000000001
-0.5676,0.1556,-0.6958,0.007,0.0119,1.0511,182.800999999978
-1.2177,0.4578,-0.6958,-0.0186,-0.0198,0.9574,182.901000000013
2.4812,-0.1099,-0.6226,0.0034,0.0208,0.972,183.000999999989
-1.648,0.5951,-0.293,-0.0024,0.0021,1.0431,183.100999999966
-1.0895,0.7691,-0.3845,-0.0012,-0.0055,0.9754,183.201000000001
1.6297,0.4578,0.2014,-0.018,0.0232,1.0208,183.300999999978
-0.9247,-0.3021,0.2289,-0.0229,-0.0043,0.9885,183.401000000013
0.6317,-0.998,0.3113,-0.0052,-0.0089,0.9638,183.500999999989
-0.0824,0.8789,0.4303,-0.0089,0.0183,1.0273,183.600999999966
-0.7233,-0.174,0.3754,-0.0214,0.0034,0.9989,183.701000000001
-0.3937,0.3479,0.8881,-0.0229,-0.0043,0.9613,183.800999999978
0.7599,0.1099,0.7965,-0.011,0.0089,1.0224,183.901000000013
-0.4944,-0.3754,1.6022,-0.0287,0.0125,1.012,184.000999999989
0.3113,0.0092,1.6205,-0.0238,-0.0052,0.9589,184.100999999966
1.3825,-0.1648,1.4008,-0.0226,0.004,1.0001,184.201000000001
-1.1353,0.2747,1.7762,-0.0272,0.0085,1.0419,184.300999999978
0.2289,0.3113,1.2726,-0.0235,-0.0043,0.9552,184.401000000013
0.65,-0.4669,1.4008,-0.014,0.0098,0.9906,184.500999999989
-1.3825,-0.0275,1.3642,-0.0296,0.007,1.0193,184.600999999966
-0.5036,0.4303,0.9064,-0.0116,-0.0031,0.9711,184.701000000001
-0.293,-0.238,0.9247,-0.004,0.0098,0.9983,184.800999999978
-0.7416,0.0092,0.7599,-0.0293,0.0052,0.9799,184.901000000013
0.1556,0.174,0.4578,-0.0208,0.0174,0.9931,185.000999999989
0.3754,0.1099,0.6958,-0.0089,0.0464,1.0294,185.100999999966
-0.705,0.2655,0.824,-0.0244,0.0269,0.9998,185.201000000001
-0.1282,0.4303,0.7691,-0.0229,0.0201,0.9571,185.300999999978
0.8606,0.9613,0.7599,-0.0174,0.0229,1.0474,185.401000000013
-1.2635,0.3571,0.998,-0.0372,-0.0183,1.016,185.500999999989
-0.1373,-1.1811,0.9796,-0.0348,-0.0226,0.9659,185.600999999966
0.6226,-0.8881,1.9593,-0.014,0.0055,1.0382,185.701000000001
-0.8057,1.5473,2.1973,-0.0275,-0.0137,0.9919,185.800999999978
0.65,-0.2289,1.9776,-0.0461,-0.0159,1.0147,185.901000000013
-0.4303,-1.2085,2.3164,-0.0336,-0.0195,1.0013,186.000999999989
0,0.5951,1.6572,-0.0299,0.0012,1.0257,186.100999999966
0.3113,-1.0712,1.9684,-0.0299,-0.0095,1.0041,186.201000000001
0.412,-0.3845,2.1699,-0.0317,0.0015,1.0117,186.300999999978
1.9135,-0.8606,1.9501,-0.0195,0.0092,0.998,186.401000000013
0.7416,0.1648,1.5564,-0.007,-0.0085,0.9851,186.500999999989
0.3571,-1.5931,0.5219,-0.0223,-0.0012,1.016,186.600999999966
0.1556,0.3113,-0.4212,-0.004,0.0006,1.0205,186.701000000001
-0.7599,-1.0437,-0.8881,0.0061,-0.0031,0.9903,186.800999999978
-1.0712,0.4944,-0.5676,0.0034,-0.0043,0.972,186.901000000013
-1.6114,0.0366,-1.5656,-0.0015,-0.0058,1.0065,187.000999999989
-1.8952,-1.1902,-0.998,0.0018,0.0052,1.0172,187.100999999966
-2.1241,0.5402,-1.3642,0.0049,-0.0146,0.9748,187.201000000001
1.1261,0.2106,-1.41,0.0183,-0.0098,0.9586,187.300999999978
1.1353,0.9339,-0.5951,0.0027,0.0046,0.9995,187.401000000013
1.5198,1.0163,-1.355,-0.0049,-0.007,0.979,187.500999999989
1.0254,-0.6867,-1.0804,-0.0009,-0.0006,1.0379,187.600999999966
-1.3733,0.5768,-0.6958,0.0043,-0.0073,1.0312,187.701000000001
-0.5676,0.4395,-1.1536,0.0049,-0.0015,0.9317,187.800999999978
-0.3937,0.1648,-1.0987,-0.0079,0.0046,1.0266,187.901000000013
0.705,0.5127,-1.0437,-0.0192,0.0079,1.034,188.000999999989
1.2909,-0.3479,-1.0529,0.0006,-0.0015,0.9751,188.100999999966
1.3459,-0.2106,-1.1078,0.0052,0.0104,1.0181,188.201000000001
0.3479,0.5036,-0.9339,0.0085,0.0018,1.0099,188.300999999978
-0.6134,1.117,-1.0895,-0.0146,-0.0055,1.0105,188.401000000013
0.0092,-1.7396,-0.998,0.0003,0.0052,0.9949,188.500999999989
-0.5951,0.5768,-0.5951,0.0073,-0.004,1.0114,188.600999999966
-0.2655,0.7233,-0.9522,-0.0116,-0.0122,0.9967,188.701000000001
1.355,-0.8972,-0.705,-0.0027,-0.0037,0.9903,188.800999999978
0.2747,0.7599,-0.4486,0.0027,-0.0107,1.0001,188.901000000013
0.8332,0.3479,-0.4395,-0.0192,-0.0024,1.0108,189.000999999989
-0.2014,-0.0916,-0.0183,-0.0052,-0.0134,1.0001,189.100999999966
-0.7324,1.2177,0.2197,-0.018,0.0012,1.0324,189.201000000001
0.5036,0.5585,0.4761,-0.0296,-0.0073,0.9796,189.300999999978
-0.4395,-0.5127,1.062,-0.025,0.0006,1.0108,189.401000000013
1.7945,-0.5127,1.1444,-0.0278,0.0101,0.9922,189.500999999989
0.6317,0.998,0.9888,-0.0287,0.0015,1.0047,189.600999999966
0.2106,-0.1923,1.5198,-0.0031,0.0092,0.9738,189.701000000001
0.6134,0.6958,1.0804,-0.0272,0.0253,1.0221,189.800999999978
-0.7141,-1.2543,0.2014,-0.0421,0.0113,1.0248,189.901000000013
-0.4852,0.4028,0.4669,0.0113,0.011,0.9525,190.000999999989
-0.3662,0.1282,-0.4761,-0.0153,0.0079,1.0102,190.100999999966
-0.3754,-0.6043,-0.943,-0.0058,-0.0015,1.0288,190.201000000001
-0.2838,0.4303,-0.7233,-0.0015,-0.0159,0.9772,190.300999999978
0.4028,1.1994,-0.9796,-0.004,0.0098,0.9955,190.401000000013
-0.2655,-1.1536,-1.2543,-0.0104,-0.0113,1.019,190.500999999989
0.7599,0.531,-0.8789,0.0073,-0.0015,0.9821,190.600999999966
1.8403,0.7324,-0.9888,-0.0085,0,1.012,190.701000000001
-0.8332,-0.9888,-1.2177,-0.0232,-0.0232,0.997,190.800999999978
1.0987,-0.6592,-1.2085,0.0092,0.018,0.997,190.901000000013
0.531,1.4557,-1.0163,0.0058,0.0089,1.0233,191.000999999989
-0.8881,-0.6958,-0.8789,-0.0211,-0.0128,0.9949,191.100999999966
0.3479,-0.7874,-0.943,-0.0024,0.0085,0.9815,191.201000000001
-1.2177,0.6867,-0.8423,0.0018,-0.0067,1.023,191.300999999978
-0.8698,0.8332,-0.8332,-0.0107,0.0125,0.9983,191.401000000013
0.0092,-1.0987,-1.0712,-0.0095,-0.007,0.947,191.500999999989
0.1831,0.0092,-1.0346,-0.0122,0.0073,1.0437,191.600999999966
-1.0712,-1.4557,-0.7324,0.0067,-0.004,1.0089,191.701000000001
-2.591,1.0895,-0.531,-0.0031,-0.0024,0.9149,191.800999999978
1.474,1.0346,-0.5219,-0.0082,0.0275,1.0532,191.901000000013
-4.0651,0.1556,-0.8332,-0.0232,0.0018,1.0468,192.000999999989
1.1994,-1.1261,-1.0163,-0.0153,-0.0287,0.9989,192.100999999966
5.4201,-1.9776,0.8423,-0.0046,0.0363,0.9867,192.201000000001
-7.123,1.941,-0.7233,0.011,-0.0085,0.8972,192.300999999978
-3.4516,0.3113,-1.355,-0.0122,-0.0592,0.9629,192.401000000013
1.3276,1.4008,-0.6409,-0.0616,0.0043,1.3059,192.500999999989
-4.4313,-9.888,-0.7965,-0.0113,-0.0095,0.9244,192.600999999966
17.4871,8.533,0.6226,0.0821,-0.0528,0.6116,192.701000000001
-1.9776,2.4903,0.1282,-0.0482,0.0934,1.3358,192.800999999978
-12.7995,0.531,-1.5931,-0.0217,-0.1135,0.932,192.901000000013
10.1993,-3.1587,0.2106,-0.0336,0.0146,1.0724,193.000999999989
1.7762,-2.2065,0.998,-0.0162,0.0485,1.0227,193.100999999966
0.174,-0.8972,-1.2543,0.029,-0.04,0.8335,193.201000000001
-0.5493,1.355,-0.8423,0.0168,-0.0009,1.0746,193.300999999978
-3.4608,1.3825,-1.0346,-0.0058,-0.0119,1.045,193.401000000013
2.6734,0.0549,-0.293,-0.0189,-0.0015,0.9888,193.500999999989
2.2248,-0.943,0.0824,-0.0122,0.0439,1.0129,193.600999999966
-1.5748,-0.2747,-0.6134,-0.0009,-0.011,0.9378,193.701000000001
-1.4649,0.3296,-0.6775,0.0116,-0.0061,1.0279,193.800999999978
-0.6409,1.2268,-0.4486,-0.0076,0.0183,1.0282,193.901000000013
0.3204,-0.5585,-0.0641,-0.0253,-0.0095,0.9668,194.000999999989
1.0071,-1.1353,-0.2472,-0.0171,0.0201,1.0157,194.100999999966
-1.3459,0.1831,-0.5402,0.0089,0.0256,0.9973,194.201000000001
0.531,1.0529,-0.4028,0.0015,-0.0034,0.969,194.300999999978
-0.1099,-0.5402,-0.6317,-0.0073,0.0183,1.0501,194.401000000013
-1.2635,0.3296,-0.8057,0.0034,0.0107,1.0025,194.500999999989
0.7782,0.2838,-0.3296,-0.0058,-0.0052,0.9751,194.600999999966
-0.8606,0.6775,-0.7874,0.0037,0.0092,1.0355,194.701000000001
-0.4028,0.4028,-0.8057,-0.0162,-0.0018,1.0108,194.800999999978
0.998,0.6226,-0.3296,-0.0024,-0.0253,0.9943,194.901000000013
-1.8403,-0.2106,-0.5402,-0.0165,-0.0049,1.0273,195.000999999989
-0.5493,0.2564,-0.7141,0.0018,-0.0342,0.9565,195.100999999966
1.1078,-0.2472,-0.4212,-0.0153,-0.0006,1.034,195.201000000001
-0.2472,0.5036,-0.4944,0.007,-0.0116,1.0089,195.300999999978
0.7324,0.0549,-0.6043,-0.0211,-0.0302,0.9076,195.401000000013
1.2726,-0.943,-0.2747,-0.0024,0.0046,1.0407,195.500999999989
-1.6114,0.7965,-0.7874,-0.0089,-0.0208,1.0566,195.600999999966
1.2818,0.1282,-0.3845,-0.0015,-0.014,0.9604,195.701000000001
0.0366,-0.1465,-0.0732,-0.0104,-0.0143,0.9842,195.800999999978
-1.2726,-0.0275,-0.6684,-0.0027,-0.0082,1.0251,195.901000000013
0.0092,1.0346,-0.5951,-0.0018,-0.0192,1.0205,196.000999999989
-0.0916,-0.3662,-0.0549,-0.0262,-0.0055,0.9833,196.100999999966
1.1719,-0.4303,0,-0.0189,-0.0085,0.9977,196.201000000001
-1.7853,-0.4395,-0.3021,-0.0018,-0.0345,1.0193,196.300999999978
-0.0732,1.1444,0.2289,-0.0021,-0.0116,0.9946,196.401000000013
-1.8403,0.8332,-0.0641,-0.0232,-0.0311,0.9897,196.500999999989
1.7304,-1.0071,-0.3021,-0.0223,-0.0214,0.9714,196.600999999966
0.1831,-0.8515,-0.0732,-0.0131,-0.022,1.0617,196.701000000001
-1.5839,0.4303,0.0916,-0.0009,-0.0305,0.9397,196.800999999978
3.3509,0.5493,0.9156,-0.0119,0.0037,0.9583,196.901000000013
0.1648,1.1902,1.6388,-0.0467,-0.0003,1.0755,197.000999999989
-0.2014,0.3388,1.7304,-0.0281,-0.0296,1.0181,197.100999999966
0.9613,0.6592,2.9939,-0.0403,-0.0067,0.9818,197.201000000001
-0.4852,-0.0092,3.3967,-0.0433,-0.0217,0.9961,197.300999999978
-0.0183,0.1648,2.8932,-0.0348,-0.0232,1.0099,197.401000000013
-0.8148,-0.4944,3.0946,-0.0436,-0.0003,1.0172,197.500999999989
0.0458,0.2197,2.9939,-0.0433,0.0284,0.9873,197.600999999966
1.2085,-0.6958,3.0122,-0.0501,0.0385,0.9836,197.701000000001
-0.2838,0.2289,3.177,-0.0262,0.0339,1.0096,197.800999999978
-0.3113,0.6867,3.0305,-0.0449,0.0171,0.9986,197.901000000013
-0.0549,0.4761,2.8657,-0.0327,0.0098,1.0001,198.000999999989
-0.5585,0.119,2.6826,-0.0415,0.0192,1.0196,198.100999999966
-0.6958,-0.2838,2.234,-0.0366,0.0104,0.9799,198.201000000001
1.2085,-1.3276,1.9501,-0.0308,0.0198,0.9885,198.300999999978
-2.884,2.0783,0.3204,-0.004,0.0082,1.0233,198.401000000013
-3.4974,2.1699,-0.5676,-0.0204,-0.0272,0.9857,198.500999999989
1.0346,-1.1719,-0.293,-0.0443,-0.0012,1.0562,198.600999999966
3.7812,-2.4628,-0.0366,-0.0345,0.0336,1.0773,198.701000000001
-0.6775,-3.2136,0.705,0.0555,0.0046,0.6269,198.800999999978
3.946,6.1525,0.4395,-0.0287,0.0098,1.0361,198.901000000013
-6.5645,0.9705,-1.3825,-0.0803,-0.0052,1.2156,199.000999999989
-2.9023,-4.9806,-1.2543,-0.0436,-0.007,0.9793,199.100999999966
4.4862,-3.5707,0.3021,0,0.0626,0.9284,199.201000000001
-0.1373,-0.5219,-0.3662,0.0247,0.0455,0.9387,199.300999999978
-1.355,2.1607,-0.4944,0.0061,0.0281,0.987,199.401000000013
-0.2564,1.117,-0.4486,-0.0266,0.0513,1.0675,199.500999999989
1.8677,-0.998,-0.5676,-0.0223,0.007,0.9714,199.600999999966
0.2197,-0.3113,-0.2655,-0.0067,-0.0021,1.044,199.701000000001
-2.4903,-0.0549,-0.4028,-0.0119,-0.0217,0.9641,199.800999999978
0.943,0.0916,-0.7233,-0.0168,-0.011,1.0175,199.901000000013
-1.3642,0.4578,-0.0183,-0.015,-0.0156,1.0147,200.000999999989
-0.6409,-0.0183,-0.2472,-0.0247,-0.0308,0.9766,200.100999999966
0.7141,0.0549,-0.5493,-0.0125,-0.0107,0.9876,200.201000000001
-0.174,0.2014,-0.2289,-0.0128,-0.0067,1.0324,200.300999999978
0.5951,-0.2289,-0.2197,-0.0198,-0.0198,0.9357,200.401000000013
2.9572,-0.7416,-0.5402,-0.0214,0.0153,1.0398,200.500999999989
-3.0763,-0.238,0.0458,0.0131,-0.0067,0.958,200.600999999966
0.4669,1.1353,0.1648,-0.0296,0.0021,1.0007,200.701000000001
0.4028,-0.293,-0.2106,-0.0351,0.022,1.048,200.800999999978
-0.1831,-0.0641,0.4212,-0.0143,0.0128,1.0099,200.901000000013
2.6002,0.7782,0.3388,-0.011,-0.0034,0.8814,201.000999999989
0.9522,0.3388,0.2655,-0.0406,0.0427,1.1368,201.100999999966
-2.8199,-0.3937,-0.0732,-0.0049,-0.0198,0.9604,201.201000000001
2.0508,0.2197,0.5585,-0.0244,0.025,1.0102,201.300999999978
0.3662,1.0346,0.4212,-0.0067,0.0034,0.9717,201.401000000013
0.3571,-0.2472,0.0916,-0.0351,0.0098,0.965,201.500999999989
0.1373,-1.0254,0.3571,-0.0253,0.0296,1.0193,201.600999999966
-1.6205,0.2014,0.0366,-0.0281,0.004,1.0147,201.701000000001
1.1353,-0.0549,0.2197,-0.0061,0.0256,0.9696,201.800999999978
-2.2797,0.4395,0.6592,-0.0388,0.0122,1.0303,201.901000000013
-0.7782,-0.3571,-0.174,-0.0247,-0.0089,0.9543,202.000999999989
0.3296,-1.3184,0.3204,-0.011,0.0296,0.9931,202.100999999966
-1.236,0.6592,0.531,-0.0195,0.0061,1.0147,202.201000000001
